"Time (s)","Acceleration x (m/s^2)","Acceleration y (m/s^2)","Acceleration z (m/s^2)","Absolute acceleration (m/s^2)"
2.571160900E-1,-5.291185975E-1,9.742305756E0,2.442085743E-1,9.759719553E0
2.591160900E-1,-5.075707436E-1,9.735123634E0,2.202665508E-1,9.750834712E0
2.611160900E-1,-5.003881454E-1,9.735123634E0,2.011129409E-1,9.750049584E0
2.631165900E-1,-4.716577232E-1,9.749488831E0,1.939303428E-1,9.762817341E0
2.651169230E-1,-4.668693244E-1,9.759065628E0,2.130839527E-1,9.772550009E0
2.671171730E-1,-4.692635238E-1,9.763854027E0,2.202665508E-1,9.777605590E0
2.691173730E-1,-4.764461517E-1,9.761459351E0,2.370259613E-1,9.775953708E0
2.711132060E-1,-4.764461517E-1,9.761459351E0,2.370259613E-1,9.775953708E0
2.731096340E-1,-4.764461517E-1,9.761459351E0,2.370259613E-1,9.775953708E0
2.751097590E-1,-4.812345505E-1,9.761459351E0,2.418143749E-1,9.776305516E0
2.771098700E-1,-4.812345505E-1,9.747094154E0,2.370259613E-1,9.761844726E0
2.791098700E-1,-4.596867263E-1,9.739912033E0,2.370259613E-1,9.753634174E0
2.811098700E-1,-4.429273009E-1,9.739912033E0,2.609679997E-1,9.753469911E0
2.831098700E-1,-4.453215301E-1,9.727940559E0,2.729389966E-1,9.741952293E0
2.851098700E-1,-4.381389022E-1,9.732728958E0,2.681505978E-1,9.746275361E0
2.871098700E-1,-4.189853072E-1,9.742305756E0,2.466027737E-1,9.754428894E0
2.891098700E-1,-4.022258818E-1,9.763854027E0,2.513911724E-1,9.775368466E0
2.911098700E-1,-3.926490843E-1,9.759065628E0,2.466027737E-1,9.770074113E0
2.931098700E-1,-3.567360640E-1,9.766247749E0,2.274491638E-1,9.775407349E0
2.951098700E-1,-3.399766386E-1,9.766247749E0,1.939303428E-1,9.774087589E0
2.971098700E-1,-3.160346150E-1,9.766247749E0,1.675941199E-1,9.772796978E0
2.991098700E-1,-3.064578176E-1,9.780612946E0,1.484405100E-1,9.786538743E0
3.011098700E-1,-2.896983922E-1,9.780612946E0,1.364694983E-1,9.785854008E0
3.031098700E-1,-2.777273953E-1,9.799766541E0,1.101332754E-1,9.804319767E0
3.051098700E-1,-2.777273953E-1,9.792584419E0,1.149216816E-1,9.797195982E0
3.071098700E-1,-2.753331959E-1,9.814131737E0,1.221042871E-1,9.818752445E0
3.091098700E-1,-2.585737705E-1,9.814131737E0,1.364694983E-1,9.818485935E0
3.111089080E-1,-2.585737705E-1,9.814131737E0,1.364694983E-1,9.818485935E0
3.131079820E-1,-2.585737705E-1,9.814131737E0,1.364694983E-1,9.818485935E0
3.151077320E-1,-2.442085743E-1,9.811738014E0,1.221042871E-1,9.815536162E0
3.171077660E-1,-2.226607651E-1,9.811738014E0,1.005564705E-1,9.814779278E0
3.191077990E-1,-2.178723514E-1,9.816526413E0,8.140286058E-2,9.819281318E0
3.211078320E-1,-2.609679997E-1,9.828496933E0,5.267243832E-2,9.832102046E0
3.231078320E-1,-2.729389966E-1,9.826103210E0,5.027823523E-2,9.830021765E0
3.251077980E-1,-2.873041928E-1,9.814131737E0,4.788403213E-2,9.818452950E0
3.271077640E-1,-3.184288144E-1,9.785401344E0,3.830722719E-2,9.790655944E0
3.291077300E-1,-3.543418646E-1,9.754277229E0,2.394201607E-2,9.760740527E0
3.311085630E-1,-3.926490843E-1,9.754277229E0,2.873042040E-2,9.762219164E0
3.331093960E-1,-4.381389022E-1,9.754277229E0,3.830722719E-2,9.764187493E0
3.351093620E-1,-4.309563041E-1,9.749488831E0,4.548983276E-2,9.759114976E0
3.371093280E-1,-4.309563041E-1,9.751882553E0,6.943184882E-2,9.761647271E0
3.391093280E-1,-4.189853072E-1,9.761459351E0,1.101332754E-1,9.771067837E0
3.411093280E-1,-4.381389022E-1,9.747094154E0,1.675941199E-1,9.758375784E0
3.431093280E-1,-4.453215301E-1,9.763854027E0,1.987187415E-1,9.776024031E0
3.451093280E-1,-4.692635238E-1,9.771036148E0,2.346317619E-1,9.785111534E0
3.471093280E-1,-5.410895944E-1,9.771036148E0,2.561795712E-1,9.789359189E0
3.491093280E-1,-6.584054828E-1,9.754277229E0,3.399766386E-1,9.782382438E0
3.511084610E-1,-6.584054828E-1,9.754277229E0,3.399766386E-1,9.782382438E0
3.531075940E-1,-6.584054828E-1,9.754277229E0,3.399766386E-1,9.782382438E0
3.551075940E-1,-6.871358752E-1,9.761459351E0,3.711012602E-1,9.792648289E0
3.571076270E-1,-7.469909191E-1,9.749488831E0,3.926490843E-1,9.785944062E0
3.591076600E-1,-7.422025204E-1,9.742305756E0,3.950432837E-1,9.778519582E0
3.611076930E-1,-7.062895298E-1,9.754277229E0,3.854664862E-1,9.787407909E0
3.631077260E-1,-6.847416759E-1,9.773430824E0,3.734954596E-1,9.804505092E0
3.651077590E-1,-5.434837937E-1,9.794978142E0,3.950432837E-1,9.817995245E0
3.671077920E-1,-1.651999205E-1,9.821314812E0,3.830722570E-1,9.830170904E0
3.691078250E-1,2.035071403E-1,9.756670952E0,3.663128614E-1,9.765665790E0
3.711086910E-1,1.867477298E-1,9.773430824E0,4.141969085E-1,9.783986093E0
3.731095240E-1,-4.165911078E-1,9.833285332E0,1.867477298E-1,9.843877452E0
3.751097570E-1,-6.607996821E-1,9.888352394E0,-4.788403399E-3,9.910408277E0
3.771097230E-1,-5.099649429E-1,9.979331970E0,-7.661445439E-2,9.992647326E0
3.791096890E-1,5.267243832E-2,9.931447983E0,-5.267243832E-2,9.931727332E0
3.811096550E-1,6.224924326E-2,9.897929192E0,-7.182605099E-3,9.898127542E0
3.831096210E-1,-3.663128614E-1,9.943418503E0,3.639186621E-1,9.956816430E0
3.851096210E-1,-3.806780577E-1,9.993697166E0,2.681505978E-1,1.000453915E1
3.871096210E-1,-2.729389966E-1,9.988908768E0,2.537853718E-1,9.995859197E0
3.891096540E-1,-1.244984865E-1,9.938630104E0,1.005564705E-1,9.939918502E0
3.911088200E-1,-1.244984865E-1,9.938630104E0,1.005564705E-1,9.939918502E0
3.931079860E-1,-1.244984865E-1,9.938630104E0,1.005564705E-1,9.939918502E0
3.951080190E-1,-9.576806426E-2,9.917082787E0,4.070143029E-2,9.917628705E0
3.971080520E-1,-5.027823523E-2,9.852438927E0,-7.422025502E-2,9.852846764E0
3.991080850E-1,-4.788403213E-2,9.862015724E0,-1.556231081E-1,9.863359751E0
4.011081180E-1,-1.029506698E-1,9.864410400E0,-1.795651317E-1,9.866581729E0
4.031081180E-1,-2.920926213E-1,9.830891609E0,-1.556231081E-1,9.836461075E0
4.051081180E-1,-3.854664862E-1,9.818920135E0,-1.005564705E-1,9.826997947E0
4.071081180E-1,-4.405331016E-1,9.816526413E0,-6.703764945E-2,9.826634942E0
4.091081180E-1,-5.626373887E-1,9.835680008E0,1.197100803E-2,9.851766611E0
4.111089840E-1,-6.895300746E-1,9.859622002E0,6.224924326E-2,9.883899671E0
4.131098500E-1,-8.020575643E-1,9.847650528E0,1.197100878E-1,9.880984149E0
4.151098500E-1,-1.137245774E0,9.739912033E0,2.944868207E-1,9.810501356E0
4.171098160E-1,-1.477222443E0,9.584288597E0,4.165911078E-1,9.706406246E0
4.191097820E-1,-1.675941229E0,9.517251015E0,3.782838583E-1,9.671088075E0
4.211097480E-1,-1.702277422E0,9.409511566E0,3.663128614E-1,9.569265460E0
4.231097140E-1,-1.570596337E0,9.390357971E0,4.237737060E-1,9.530224543E0
4.251096800E-1,-1.465251446E0,9.416694641E0,4.501099288E-1,9.540634083E0
4.271096460E-1,-1.259350061E0,9.457395554E0,5.267243981E-1,9.555403279E0
4.291096120E-1,-7.086837292E-1,9.629778862E0,3.016694188E-1,9.660531973E0
4.311087120E-1,-7.086837292E-1,9.629778862E0,3.016694188E-1,9.660531973E0
4.331078450E-1,-7.086837292E-1,9.629778862E0,3.016694188E-1,9.660531973E0
4.351075110E-1,-6.655880809E-1,9.663297653E0,2.944868207E-1,9.690668270E0
4.371075440E-1,-4.644751251E-1,9.682451248E0,3.256114423E-1,9.699052641E0
4.391075770E-1,-3.902548850E-1,9.706393242E0,3.016694188E-1,9.718918308E0
4.411076100E-1,-1.604115069E-1,9.723152161E0,1.867477298E-1,9.726268272E0
4.431076430E-1,1.053448766E-1,9.763854027E0,3.711012602E-1,9.771471698E0
4.451076760E-1,1.244984865E-1,9.785401344E0,4.548983276E-1,9.796760272E0
4.471077090E-1,-4.548983276E-2,9.806949615E0,2.418143749E-1,9.810035896E0
4.491077090E-1,-1.915361360E-2,9.823708534E0,1.771709323E-1,9.825324716E0
4.511085420E-1,7.182605099E-3,9.828496933E0,2.130839527E-1,9.830809139E0
4.531093750E-1,-7.182605099E-3,9.866804123E0,3.519476354E-1,9.873081704E0
4.551093410E-1,4.788403213E-2,9.830891609E0,5.386953950E-1,9.845756215E0
4.571093070E-1,8.379705995E-2,9.778219223E0,5.817909837E-1,9.795870246E0
4.591092730E-1,-1.460463107E-1,9.835680008E0,5.722141862E-1,9.853393315E0
4.611083390E-1,-1.580173075E-1,9.754277229E0,7.038952708E-1,9.780918274E0
4.631083390E-1,-1.244984865E-1,9.677662849E0,6.440402865E-1,9.699868349E0
4.651083390E-1,-2.537853718E-1,9.660902977E0,6.057330370E-1,9.683200187E0
4.671083720E-1,-3.280056417E-1,9.742305756E0,6.320692301E-1,9.768296712E0
4.691084050E-1,-6.775590777E-1,9.862015724E0,3.543418646E-1,9.891612538E0
4.711075710E-1,-5.913678408E-1,9.897929192E0,4.165911078E-1,9.924326998E0
4.731067370E-1,-5.913678408E-1,9.897929192E0,4.165911078E-1,9.924326998E0
4.751058700E-1,-5.961562395E-1,9.962572098E0,4.405331016E-1,9.990110834E0
4.771050030E-1,-5.243301988E-1,9.979331970E0,4.932055473E-1,1.000526064E1
4.791047690E-1,-4.692635238E-1,1.003679276E1,4.692635238E-1,1.005870893E1
4.811047690E-1,-8.475474119E-1,1.020438671E1,3.639186621E-1,1.024598856E1
4.831038690E-1,-8.786720037E-1,1.015650272E1,4.668693244E-1,1.020512514E1
4.851038690E-1,-9.050082564E-1,1.008228302E1,5.099649429E-1,1.013565662E1
4.871038690E-1,-7.541735172E-1,9.933841705E0,3.375824392E-1,9.968146800E0
4.891038690E-1,-8.403648138E-1,1.002482224E1,2.035071403E-1,1.006204199E1
4.911047350E-1,-8.331822157E-1,1.001285076E1,2.082955539E-1,1.004961492E1
4.931056010E-1,-6.847416759E-1,9.945813179E0,3.687070608E-1,9.976172405E0
4.951052670E-1,-6.560112834E-1,9.921871185E0,4.094084799E-1,9.951959301E0
4.971055670E-1,-7.206547260E-1,1.007988834E1,2.753331959E-1,1.010936697E1
4.991055330E-1,-7.254431248E-1,1.018283939E1,3.375824392E-1,1.021422771E1
5.011054990E-1,-4.094084799E-1,1.012298393E1,4.501099288E-1,1.014125327E1
5.031054650E-1,-1.867477298E-1,1.004397583E1,4.884171486E-1,1.005757806E1
5.051054310E-1,2.298433632E-1,9.864410400E0,5.602431893E-1,9.882979963E0
5.071056310E-1,4.620809257E-1,9.689633369E0,6.536170840E-1,9.722640017E0
5.091055970E-1,-5.075707436E-1,1.004876423E1,1.556231081E-1,1.006277840E1
5.111047300E-1,-3.208230138E-1,9.900322914E0,2.035071403E-1,9.907610023E0
5.131038960E-1,-3.208230138E-1,9.900322914E0,2.035071403E-1,9.907610023E0
5.151039290E-1,-3.208230138E-1,9.900322914E0,2.035071403E-1,9.907610023E0
5.171039620E-1,3.495534360E-1,9.296984673E0,2.346317619E-1,9.306511896E0
5.191039950E-1,1.027112484E0,8.399158478E0,1.091755986E0,8.531866989E0
5.211049280E-1,3.280056417E-1,8.719982147E0,1.039083481E0,8.787796699E0
5.231049610E-1,-8.475474119E-1,9.241917610E0,6.344634295E-1,9.302361075E0
5.251049940E-1,-1.161187768E0,9.900322914E0,3.375824392E-1,9.973901581E0
5.271049940E-1,-1.568202138E0,1.023311710E1,-2.394201700E-3,1.035258177E1
5.291049600E-1,-1.853112102E0,1.064970875E1,-3.136404157E-1,1.081428182E1
5.311057930E-1,-1.766920805E0,1.066167927E1,-1.412578970E-1,1.080802330E1
5.331066260E-1,-8.882488012E-1,1.009425354E1,-1.388636976E-1,1.013421056E1
5.351074920E-1,-4.118026793E-1,9.627384186E0,1.508347094E-1,9.637367837E0
5.371083580E-1,9.552865028E-1,8.365639687E0,1.460463047E0,8.545727118E0
5.391085910E-1,1.242590666E0,8.921094894E0,1.707065821E0,9.167553621E0
5.411084570E-1,1.359906554E0,9.239523888E0,1.491587639E0,9.457429946E0
5.431093570E-1,3.734954596E-1,1.013974380E1,1.039083481E0,1.019968616E1
5.451093900E-1,-1.158793569E0,1.098250294E1,-1.316810995E-1,1.104425250E1
5.471094230E-1,-1.130063176E0,1.099686813E1,-4.932055473E-1,1.106577622E1
5.491094560E-1,-1.261744261E0,9.646537781E0,1.628057212E-1,9.730066569E0
5.511086220E-1,-1.261744261E0,9.646537781E0,1.628057212E-1,9.730066569E0
5.531077550E-1,-2.061407566E0,1.002482224E1,-4.046200812E-1,1.024256703E1
5.551084550E-1,-2.061407566E0,1.002482224E1,-4.046200812E-1,1.024256703E1
5.571081550E-1,-2.736572504E0,1.063534355E1,-4.141969085E-1,1.098958237E1
5.591081880E-1,-2.298433542E0,1.106629944E1,-1.580173075E-1,1.130357242E1
5.611081880E-1,-1.977610588E0,1.132008457E1,1.915361360E-2,1.149154581E1
5.631081880E-1,-9.409212470E-1,1.151401520E1,2.035071403E-1,1.155418945E1
5.651081880E-1,1.194706678E0,1.064970875E1,9.097966552E-2,1.071689777E1
5.671079540E-1,2.489969730E0,9.806949615E0,-1.675941236E-2,1.011812685E1
5.691079540E-1,3.373430252E0,8.561964989E0,-1.436521020E-2,9.202580208E0
5.711088200E-1,-2.059013367E0,9.591471672E0,-5.147533417E-1,9.823483897E0
5.731096530E-1,-3.890577793E0,1.024748230E1,-1.197100878E-1,1.096183468E1
5.751096190E-1,-3.711012602E0,1.118361568E1,-1.029506698E-1,1.178369522E1
5.771095850E-1,-2.145204782E0,1.139669895E1,-5.506663769E-2,1.159696869E1
5.791095510E-1,-1.632845521E0,1.151162148E1,-5.027823523E-2,1.162695753E1
5.811095170E-1,-1.149216771E0,1.166006184E1,-2.394201700E-3,1.171655866E1
5.831094830E-1,-6.512228847E-1,1.163851357E1,1.436521020E-2,1.165672748E1
5.851094490E-1,-2.418143749E-1,1.135599804E1,-7.422025502E-2,1.135881483E1
5.871094150E-1,7.493851185E-1,1.056351757E1,1.771709323E-1,1.059154715E1
5.891094150E-1,9.672574997E-1,8.741529465E0,1.340752989E-1,8.795902491E0
5.911085810E-1,9.672574997E-1,8.741529465E0,1.340752989E-1,8.795902491E0
5.931077470E-1,9.672574997E-1,8.741529465E0,1.340752989E-1,8.795902491E0
5.951077800E-1,1.388636976E-1,9.038411140E0,3.136404157E-1,9.044917323E0
5.971074130E-1,-5.961562395E-1,9.718363762E0,4.405331016E-1,9.746592527E0
5.991074460E-1,-7.278373241E-1,9.917082787E0,5.243301988E-1,9.957570001E0
6.011076120E-1,-7.398083210E-1,1.006791782E1,7.230489254E-1,1.012092315E1
6.031076450E-1,-6.655880809E-1,1.010383034E1,9.169792533E-1,1.016716509E1
6.051076450E-1,-6.536170840E-1,1.010143661E1,9.696516991E-1,1.016889676E1
6.071076110E-1,-5.434837937E-1,9.984120369E0,1.012747288E0,1.005005927E1
6.091075770E-1,6.943184882E-2,9.653720856E0,7.900865674E-1,9.686247154E0
6.111084100E-1,6.943184882E-2,9.282619476E0,7.900865674E-1,9.316441483E0
6.131092760E-1,1.007958889E0,8.030451775E0,7.517793179E-1,8.128302957E0
6.151092420E-1,8.762778044E-1,7.376834869E0,1.098938584E0,7.509542029E0
6.171092080E-1,4.548983276E-1,7.467814445E0,1.089361787E0,7.560548537E0
6.191091740E-1,2.272097349E0,6.486191750E0,6.153098345E-1,6.900124344E0
6.211091740E-1,-2.681505978E-1,7.494150639E0,7.469909191E-1,7.536059578E0
6.231092070E-1,-1.185129881E0,8.253112793E0,8.762778044E-1,8.383690500E0
6.251092400E-1,-1.630451322E0,9.701604843E0,6.584054828E-1,9.859665604E0
6.271092730E-1,-1.616086125E0,1.085560989E1,2.920926213E-1,1.097913105E1
6.291093060E-1,-7.637503147E-1,1.117882729E1,4.237737060E-1,1.121289785E1
6.311084720E-1,-7.637503147E-1,1.117882729E1,4.237737060E-1,1.121289785E1
6.331076380E-1,-4.764461517E-1,1.090588760E1,6.129156351E-1,1.093348302E1
6.351076710E-1,-2.729389966E-1,1.065210247E1,7.062895298E-1,1.067898065E1
6.371077040E-1,-9.097966552E-2,1.030494308E1,7.350199223E-1,1.033152378E1
6.391077040E-1,9.457096457E-1,8.640973091E0,1.316810966E0,8.791744640E0
6.411077040E-1,4.548983276E-1,7.676109791E0,1.362300754E0,7.809318623E0
6.431077040E-1,7.038952708E-1,6.998550892E0,8.499416113E-1,7.085025327E0
6.451077040E-1,-8.116343617E-1,7.484573841E0,5.722141862E-1,7.550167216E0
6.471077040E-1,-3.284844637E0,9.007286072E0,1.170764685E0,9.658783392E0
6.491077040E-1,-3.598485231E0,9.914688110E0,4.309562966E-2,1.054760606E1
6.511085370E-1,-3.380612850E0,1.192821217E1,-7.469909191E-1,1.242049855E1
6.531093700E-1,-2.700659513E0,1.303672791E1,-9.600749016E-1,1.334809275E1
6.551093360E-1,-2.319981337E0,1.314207268E1,-7.733271718E-1,1.336766332E1
6.571097020E-1,-1.022324085E0,1.247648430E1,-1.987187415E-1,1.251987604E1
6.591096680E-1,1.307234168E0,1.089870548E1,1.185129881E0,1.104061480E1
6.611096340E-1,2.140416384E0,1.039592266E1,1.156399369E0,1.067679024E1
6.631096000E-1,2.568978310E0,9.608230591E0,6.224924326E-1,9.965201527E0
6.651095660E-1,2.027888775E0,9.447818756E0,4.070143029E-2,9.663087950E0
6.671091320E-1,-9.576806799E-3,1.049169159E1,3.830722570E-1,1.049868699E1
6.691091650E-1,4.094084799E-1,1.177737713E1,5.937620401E-1,1.179943985E1
6.711083310E-1,4.094084799E-1,1.171752262E1,5.937620401E-1,1.173969783E1
6.731074640E-1,4.094084799E-1,1.171752262E1,5.937620401E-1,1.173969783E1
6.751074970E-1,4.094084799E-1,1.171752262E1,5.937620401E-1,1.173969783E1
6.771075300E-1,8.451532125E-1,1.158823586E1,5.458779931E-1,1.163183034E1
6.791075630E-1,8.762778044E-1,1.137036324E1,6.847416759E-1,1.142461790E1
6.811075960E-1,8.738836050E-1,1.117643261E1,7.613561153E-1,1.123636870E1
6.831075960E-1,9.528923035E-1,1.066407394E1,9.121908545E-1,1.074535104E1
6.851075620E-1,9.888052940E-1,1.015171432E1,7.158663273E-1,1.022484739E1
6.871075280E-1,9.504981041E-1,9.830891609E0,6.033388376E-1,9.895144983E0
6.891074940E-1,8.451532125E-1,9.352050781E0,5.434837937E-1,9.405876482E0
6.911083270E-1,6.751648784E-1,9.117419243E0,2.873041928E-1,9.146897013E0
6.931091600E-1,6.943184733E-1,8.985737801E0,4.094084799E-1,9.021816739E0
6.951091260E-1,6.799532771E-1,8.652944565E0,3.926490843E-1,8.688495808E0
6.971090920E-1,4.357447028E-1,8.545205116E0,2.226607651E-1,8.559204504E0
6.991090920E-1,1.340752989E-1,8.571541786E0,4.189853072E-1,8.582823164E0
7.011091250E-1,1.029506698E-1,8.559570312E0,6.153098345E-1,8.582275279E0
7.031091580E-1,3.351882473E-2,8.619425774E0,8.355764151E-1,8.659896773E0
7.051091910E-1,-7.182605099E-3,8.767866135E0,1.005564690E0,8.825343534E0
7.071092240E-1,6.224924326E-2,8.775048256E0,1.154005170E0,8.850823396E0
7.091092570E-1,2.370259613E-1,8.370428085E0,2.561795712E0,8.756885571E0
7.111084230E-1,2.370259613E-1,8.370428085E0,2.561795712E0,8.756885571E0
7.131075890E-1,2.370259613E-1,8.370428085E0,2.561795712E0,8.756885571E0
7.151075890E-1,2.442085743E-1,8.449437141E0,2.375048161E0,8.780289266E0
7.171075890E-1,2.992752194E-1,8.626607895E0,2.233790159E0,8.916150958E0
7.191075890E-1,3.567360640E-1,8.722375870E0,1.991975784E0,8.954053214E0
7.211075890E-1,4.333505034E-1,8.734347343E0,2.102109194E0,8.994191417E0
7.231075890E-1,2.633621991E-1,8.700828552E0,2.085349798E0,8.951115066E0
7.251075890E-1,4.644751251E-1,8.602665901E0,1.429338455E0,8.732960905E0
7.271080220E-1,4.046200812E-1,8.221987724E0,1.067813993E0,8.300905148E0
7.291079880E-1,-7.685387731E-1,8.619425774E0,5.339069963E-1,8.670075501E0
7.311088210E-1,-4.429273009E-1,8.959402084E0,1.022324085E0,9.028411645E0
7.331096870E-1,-6.967126727E-1,9.524434090E0,-8.571242094E-1,9.588269666E0
7.351096530E-1,-1.335964561E0,1.063055515E1,-2.039859772E0,1.090662790E1
7.371096190E-1,-2.027888775E0,1.148049641E1,-2.042253971E0,1.183574805E1
7.391095850E-1,-1.702277422E0,1.168160915E1,-1.711854219E0,1.192846116E1
7.411095510E-1,-7.589619160E-1,1.180850220E1,-9.624691010E-1,1.187194567E1
7.431095170E-1,-2.753331959E-1,1.127698898E1,-1.125274822E-1,1.128091093E1
7.451095170E-1,-1.795651317E-1,1.100165653E1,2.801215947E-1,1.100668698E1
7.471093500E-1,-5.985504389E-2,1.049169159E1,7.972691655E-1,1.052211068E1
7.491093830E-1,8.786720037E-1,9.878775597E0,1.146822572E0,9.983860666E0
7.511085490E-1,8.786720037E-1,9.833285332E0,1.067813993E0,9.930044896E0
7.531077150E-1,8.786720037E-1,9.833285332E0,1.067813993E0,9.930044896E0
7.551077480E-1,1.115697980E0,9.766247749E0,9.313444495E-1,9.873792563E0
7.571077810E-1,1.486799240E0,9.675268173E0,7.709329724E-1,9.819150872E0
7.591078140E-1,1.599326730E0,9.498097420E0,3.782838583E-1,9.639232296E0
7.611078140E-1,1.618480325E0,9.411906242E0,1.675941199E-1,9.551520584E0
7.631077800E-1,1.663970232E0,9.220370293E0,1.915361360E-2,9.369332534E0
7.651077460E-1,1.654393315E0,9.107842445E0,3.830722719E-2,9.256958393E0
7.671077120E-1,1.546654344E0,8.937853813E0,1.244984865E-1,9.071541783E0
7.691076780E-1,1.256955862E0,8.688857079E0,-1.484405100E-1,8.780558636E0
7.711085110E-1,1.084573388E0,8.415918350E0,-6.871358752E-1,8.513291774E0
7.731093440E-1,1.891419291E0,8.238747597E0,8.140286058E-2,8.453464102E0
7.751093440E-1,1.850717902E0,8.648156166E0,1.977610588E0,9.062378577E0
7.771093440E-1,1.582567334E0,8.909123421E0,1.807622313E0,9.227377630E0
7.791093770E-1,1.362300754E0,9.282619476E0,1.515529633E0,9.503668647E0
7.811094100E-1,1.398213744E0,9.395146370E0,1.142034173E0,9.567027701E0
7.831094430E-1,1.304839969E0,9.383175850E0,9.313444495E-1,9.519138557E0
7.851094760E-1,7.493851185E-1,9.397541046E0,3.016694188E-1,9.432198058E0
7.871095090E-1,1.819593310E-1,9.249100685E0,-1.771709323E-1,9.252586785E0
7.891095420E-1,9.481038451E-1,9.708786964E0,3.950432837E-1,9.762965964E0
7.911087080E-1,9.481038451E-1,9.708786964E0,3.950432837E-1,9.762965964E0
7.931078740E-1,9.481038451E-1,9.708786964E0,3.950432837E-1,9.762965964E0
7.951078740E-1,1.051054597E0,9.809343338E0,6.607996821E-1,9.887597722E0
7.971078740E-1,1.048660398E0,9.907505989E0,7.422025204E-1,9.990456853E0
7.991078740E-1,7.661445141E-1,1.005355263E1,5.530605912E-1,1.009785987E1
8.011078740E-1,8.379705995E-2,1.007988834E1,3.471592367E-1,1.008621289E1
8.031078740E-1,-3.088520169E-1,1.006791782E1,2.609679997E-1,1.007603410E1
8.051078740E-1,-9.265560508E-1,1.001285076E1,1.723825186E-1,1.005710705E1
8.071080400E-1,-1.350329757E0,9.857227325E0,1.699883193E-1,9.950739522E0
8.091080060E-1,-1.510741234E0,9.682451248E0,2.202665508E-1,9.802077260E0
8.111088390E-1,-1.510741234E0,9.562741280E0,1.987187415E-1,9.683380040E0
8.131096720E-1,-1.400607944E0,9.289801598E0,1.651999205E-1,9.396244321E0
8.151096380E-1,-1.323993564E0,9.153332710E0,1.460463107E-1,9.249745304E0
8.171096040E-1,-1.218648672E0,8.961795807E0,9.816227108E-2,9.044806493E0
8.191095700E-1,-1.158793569E0,8.899546623E0,8.619125932E-2,8.975085602E0
8.211095360E-1,-1.134851575E0,8.911518097E0,8.619125932E-2,8.983900702E0
8.231095360E-1,-1.130063176E0,9.028834343E0,1.292868853E-1,9.100198211E0
8.251095690E-1,-1.017535686E0,9.184456825E0,1.819593310E-1,9.242442061E0
8.271096020E-1,-8.140285611E-1,9.390357971E0,2.896983922E-1,9.430026007E0
8.291096350E-1,-4.453215301E-1,9.814131737E0,5.171475410E-1,9.837831803E0
8.311088010E-1,-4.453215301E-1,9.814131737E0,5.171475410E-1,9.837831803E0
8.331079670E-1,-4.453215301E-1,9.814131737E0,5.171475410E-1,9.837831803E0
8.351080000E-1,-3.854664862E-1,9.866804123E0,5.315127969E-1,9.888625479E0
8.371080330E-1,-2.489969730E-1,9.950601578E0,5.291185975E-1,9.967769948E0
8.391080330E-1,-1.268926859E-1,1.000806236E1,4.477157295E-1,1.001887536E1
8.411079990E-1,-9.097966552E-2,1.002242756E1,3.878606856E-1,1.003034234E1
8.431079650E-1,-9.576806426E-2,1.002242756E1,2.226607651E-1,1.002535802E1
8.451079310E-1,-1.532289088E-1,9.979331970E0,3.591302410E-2,9.980572900E0
8.471078970E-1,-2.011129409E-1,9.926659584E0,-4.548983276E-2,9.928800846E0
8.491078630E-1,-3.830722570E-1,9.835680008E0,-2.466027737E-1,9.846225597E0
8.511086960E-1,-4.525041282E-1,9.797372818E0,-3.327940404E-1,9.813461469E0
8.531095290E-1,-4.979939461E-1,9.761459351E0,-4.094084799E-1,9.782724668E0
8.551095290E-1,-6.009446383E-1,9.715970039E0,-5.817909837E-1,9.751906942E0
8.571095290E-1,-7.493851185E-1,9.739912033E0,-9.552865028E-1,9.815296061E0
8.591095290E-1,-9.361328483E-1,9.785401344E0,-1.010353088E0,9.881864072E0
8.611095290E-1,-1.019929886E0,9.763854027E0,-8.547300100E-1,9.854119231E0
8.631095290E-1,-8.403648138E-1,9.579500198E0,-2.035071403E-1,9.618443337E0
8.651095290E-1,-2.274491638E-1,9.292196274E0,4.285621047E-1,9.304854120E0
8.671086290E-1,1.771709323E-1,9.170091629E0,6.464344859E-1,9.194555322E0
8.691086290E-1,8.283938169E-1,8.873210907E0,5.554547906E-1,8.929089435E0
8.711077620E-1,8.283938169E-1,8.873210907E0,5.554547906E-1,8.929089435E0
8.731069280E-1,8.283938169E-1,8.873210907E0,5.554547906E-1,8.929089435E0
8.751069610E-1,7.422025204E-1,8.882787704E0,4.070142806E-1,8.923028780E0
8.771069940E-1,6.368576288E-1,8.916306496E0,3.184288144E-1,8.944691502E0
8.791070270E-1,8.044517636E-1,8.923488617E0,3.519476354E-1,8.966585687E0
8.811070600E-1,1.060631394E0,8.909123421E0,4.979939461E-1,8.985845372E0
8.831070930E-1,1.869871497E0,8.753500938E0,8.307880163E-1,8.989460875E0
8.851070930E-1,2.463633537E0,8.511686325E0,1.199495077E0,8.941872441E0
8.871070930E-1,2.978386879E0,8.353669167E0,1.599326730E0,9.011793547E0
8.891070590E-1,8.307880163E-1,9.124602318E0,1.829170108E0,9.343149334E0
8.911078920E-1,-1.235408068E0,9.711181641E0,1.323993564E0,9.878574842E0
8.931087250E-1,-1.165976286E0,1.013016701E1,8.690952063E-1,1.023401733E1
8.951086910E-1,-7.062895298E-1,1.007509995E1,3.974374831E-1,1.010764267E1
8.971086570E-1,-1.819593310E-1,9.976937294E0,1.149216816E-1,9.979258187E0
8.991086230E-1,-7.661445439E-2,9.955389977E0,4.309562966E-2,9.955778051E0
9.011086230E-1,-2.681505978E-1,1.001045704E1,1.268926859E-1,1.001485180E1
9.031086560E-1,-2.130839527E-1,1.015650272E1,5.363011956E-1,1.017288412E1
9.051086890E-1,-1.029506698E-1,1.031451988E1,9.481038451E-1,1.035851438E1
9.071087220E-1,-4.357447028E-1,1.052760410E1,4.070142806E-1,1.054447638E1
9.091087550E-1,-1.549048543E0,1.065928555E1,4.908113480E-1,1.078243087E1
9.111079210E-1,-1.549048543E0,1.065928555E1,4.908113480E-1,1.078243087E1
9.131070870E-1,-1.747767210E0,1.065449715E1,5.530605912E-1,1.081105340E1
9.151062200E-1,-1.747767210E0,1.065449715E1,5.530605912E-1,1.081105340E1
9.171062530E-1,-1.910573006E0,1.063294888E1,6.488286853E-1,1.082270159E1
9.191062530E-1,-2.037465572E0,1.054915237E1,8.044517636E-1,1.077418324E1
9.211062530E-1,-1.865083098E0,1.039592266E1,9.193734527E-1,1.060183901E1
9.231062530E-1,-1.695094824E0,1.030494308E1,1.010353088E0,1.049218813E1
9.251062530E-1,-1.649604917E0,1.019720459E1,1.053448796E0,1.038334879E1
9.271071530E-1,-1.649604917E0,1.018762779E1,1.041477680E0,1.037273504E1
9.291071530E-1,-1.620874524E0,1.026184750E1,1.034295082E0,1.044042693E1
9.311080190E-1,-1.611297727E0,1.032170296E1,1.036689281E0,1.049802634E1
9.331088520E-1,-1.798045516E0,1.047493172E1,8.858546019E-1,1.066498479E1
9.351088180E-1,-1.776497602E0,1.058985329E1,8.283938169E-1,1.076973410E1
9.371087840E-1,-1.752555609E0,1.065449715E1,8.212111592E-1,1.082885721E1
9.391087500E-1,-1.683123827E0,1.072392845E1,8.667010069E-1,1.088975288E1
9.411087160E-1,-1.685518026E0,1.072871685E1,9.265560508E-1,1.089976341E1
9.431086820E-1,-1.673547029E0,1.071914005E1,9.840168953E-1,1.089353076E1
9.451086480E-1,-1.503558636E0,1.063294888E1,1.233013868E0,1.080928367E1
9.471086140E-1,-1.352723956E0,1.050605679E1,1.233013868E0,1.066430563E1
9.491086140E-1,-2.609679997E-1,9.945813179E0,1.276109457E0,1.003074072E1
9.511077800E-1,-2.082955539E-1,9.945813179E0,1.276109457E0,1.002950857E1
9.531069460E-1,-2.082955539E-1,9.862015724E0,1.213860273E0,9.938621531E0
9.551069790E-1,-1.221042871E-1,9.862015724E0,1.213860273E0,9.937188756E0
9.571070120E-1,7.661445439E-2,9.725546837E0,1.067813993E0,9.784291378E0
9.591070450E-1,1.932120800E0,9.031228065E0,8.020575643E-1,9.270354227E0
9.611070780E-1,1.697489023E0,8.729558945E0,1.180341482E0,8.971057595E0
9.631070780E-1,-7.062895298E-1,9.036016464E0,1.680729628E0,9.218095819E0
9.651070780E-1,1.482010841E0,8.226776123E0,9.576807022E-1,8.413878644E0
9.671070440E-1,-3.758896589E0,8.973767281E0,1.187524080E0,9.801429295E0
9.691070100E-1,-7.647379398E0,1.064731407E1,9.816226959E-1,1.314577087E1
9.711078430E-1,-7.398382664E0,1.115009689E1,1.180341482E0,1.343331429E1
9.731086760E-1,-4.898836136E0,1.167682076E1,1.582567334E0,1.276131881E1
9.751095420E-1,-3.675099611E0,1.169597435E1,1.443703651E0,1.234449081E1
9.771095080E-1,-1.453280449E0,1.111418343E1,9.600749016E-1,1.124983738E1
9.791095080E-1,1.094150186E0,1.034564495E1,1.149216771E0,1.046662473E1
9.811095410E-1,2.181117773E0,9.895534515E0,1.015141487E0,1.018378075E1
9.831095740E-1,3.258508444E0,9.079112053E0,7.900865674E-1,9.678449759E0
9.851096070E-1,2.964021683E0,8.645761490E0,7.206547260E-1,9.168094650E0
9.871096400E-1,2.042253971E0,8.581118584E0,6.631938815E-1,8.845689547E0
9.891096730E-1,7.709329724E-1,9.040804863E0,7.781155705E-1,9.106917923E0
9.911088390E-1,7.709329724E-1,9.040804863E0,7.781155705E-1,9.106917923E0
9.931080050E-1,7.709329724E-1,9.040804863E0,7.781155705E-1,9.106917923E0
9.951080380E-1,7.422025204E-1,9.091083527E0,7.972691655E-1,9.156107382E0
9.971080380E-1,9.217676520E-1,9.122207642E0,7.637503147E-1,9.200415339E0
9.991089040E-1,1.244984865E0,9.110237122E0,5.793967843E-1,9.213148667E0
1.001108904E0,1.486799240E0,9.091083527E0,4.333505034E-1,9.222047730E0
1.003108904E0,1.956062794E0,9.033622742E0,1.460463107E-1,9.244125216E0
1.005110104E0,2.387019157E0,8.937853813E0,-1.723825186E-1,9.252718896E0
1.007109437E0,2.707842112E0,8.839692116E0,-3.447650373E-1,9.251563572E0
1.009109437E0,3.315969467E0,8.660126686E0,-7.038952708E-1,9.299941735E0
1.011110270E0,3.560178041E0,8.482955933E0,-9.409212470E-1,9.247742526E0
1.013111270E0,3.847482204E0,8.238747597E0,-1.103726983E0,9.159601221E0
1.015110336E0,4.216189384E0,8.073547363E0,-1.158793569E0,9.181569718E0
1.017109402E0,6.052841187E0,7.530063629E0,-1.221042871E0,9.738053727E0
1.019108468E0,6.689698696E0,7.168539047E0,-9.074024558E-1,9.846999540E0
1.021107534E0,3.703830004E0,7.671321392E0,-6.009446383E-1,8.539828046E0
1.023106600E0,-3.471592367E-1,8.571541786E0,-5.554547906E-1,8.596532915E0
1.025105666E0,-7.781155705E-1,8.755894661E0,-5.961562395E-1,8.810593477E0
1.027105532E0,5.506663769E-2,8.798990250E0,-7.469909191E-1,8.830812940E0
1.029105432E0,-2.217030764E0,8.892364502E0,3.758896589E-1,9.172276973E0
1.031104598E0,-2.217030764E0,8.892364502E0,3.758896589E-1,9.172276973E0
1.033103798E0,-2.217030764E0,8.892364502E0,3.758896589E-1,9.172276973E0
1.035103331E0,-3.878606796E0,9.519645691E0,3.591302633E-1,1.028572891E1
1.037102864E0,-3.837905407E0,1.008228302E1,-3.351882473E-2,1.078809864E1
1.039102397E0,-3.069366693E0,1.014692593E1,-1.939303428E-1,1.060276976E1
1.041101897E0,-1.642422318E0,1.001524544E1,-3.543418646E-1,1.015520804E1
1.043101397E0,-8.044517636E-1,9.680056572E0,-4.118026793E-1,9.722150962E0
1.045101230E0,-4.046200812E-1,9.457395554E0,-3.136404157E-1,9.471241649E0
1.047100696E0,2.418143749E-1,9.040804863E0,4.788403399E-3,9.044039457E0
1.049100162E0,-1.388636976E-1,9.136572838E0,8.140286058E-2,9.137990631E0
1.051100862E0,-5.003881454E-1,9.251494408E0,9.337386489E-2,9.265487345E0
1.053101195E0,-1.024718285E0,9.531616211E0,2.370259613E-1,9.589470082E0
1.055100661E0,-1.247379065E0,9.749488831E0,2.968810201E-1,9.833444225E0
1.057099961E0,-1.300051570E0,9.787796021E0,2.537853718E-1,9.877018378E0
1.059098594E0,-1.266532660E0,9.694421768E0,1.891419291E-1,9.778634520E0
1.061098127E0,-1.723825216E0,9.636960983E0,2.920926213E-1,9.794279375E0
1.063098027E0,-2.408566952E0,9.632172585E0,7.086837292E-1,9.954003018E0
1.065096360E0,-2.437297344E0,9.507674217E0,8.259995580E-1,9.849800132E0
1.067096560E0,-1.400607944E0,9.167697906E0,9.552865028E-1,9.323141092E0
1.069096460E0,5.439925671E0,8.305785179E0,1.489193439E0,1.003974879E1
1.071095626E0,7.946654797E0,7.781454563E0,1.977610588E0,1.129651722E1
1.073094659E0,7.946654797E0,7.781454563E0,1.977610588E0,1.129651722E1
1.075095059E0,7.510910034E0,7.654561996E0,2.066195965E0,1.092132110E1
1.077095292E0,4.929960728E0,8.032846451E0,1.671152830E0,9.572036704E0
1.079096192E0,4.733336926E0,7.647379398E0,4.405331016E-1,9.004496628E0
1.081097092E0,2.018311977E0,8.226776123E0,3.615244627E-1,8.478450835E0
1.083097992E0,-1.608903527E0,9.232340813E0,1.024718285E0,9.427339763E0
1.085098892E0,-2.377442360E0,9.859622002E0,1.486799240E0,1.025060731E1
1.087099025E0,-6.464344859E-1,1.073829365E1,1.714248419E0,1.089346022E1
1.089099125E0,6.986579895E0,1.059224796E1,2.712630510E0,1.297560711E1
1.091100525E0,6.366481781E0,1.087236881E1,2.286462545E0,1.280501483E1
1.093101325E0,7.506121635E0,1.027621269E1,4.836287498E-1,1.273484613E1
1.095101791E0,7.996633649E-1,1.051802731E1,8.451532125E-1,1.058218521E1
1.097102257E0,-2.794033289E0,1.068801594E1,1.450886250E0,1.114205446E1
1.099102723E0,-3.895366192E0,1.030494308E1,1.453280449E0,1.111205444E1
1.101103189E0,-2.037465572E0,1.127698898E1,6.440402865E-1,1.147765370E1
1.103103655E0,2.801215947E-1,1.152359200E1,7.685387731E-1,1.155258813E1
1.105103788E0,9.277831078E0,1.078857231E1,1.821987510E0,1.434542019E1
1.107104321E0,6.512527943E0,1.067365074E1,-2.873041928E-1,1.250689346E1
1.109104454E0,-7.295432091E0,1.123149967E1,-5.458779931E-1,1.340402540E1
1.111103754E0,-7.295432091E0,1.123149967E1,-5.458779931E-1,1.340402540E1
1.113103420E0,-7.295432091E0,1.123149967E1,-5.458779931E-1,1.340402540E1
1.115103953E0,-7.295432091E0,1.123149967E1,-5.458779931E-1,1.340402540E1
1.117104686E0,-6.122272968E0,1.171273422E1,-8.044517636E-1,1.324075194E1
1.119105219E0,-3.126827478E0,1.142303562E1,-1.012747288E0,1.188648182E1
1.121105719E0,4.565742493E0,1.109981823E1,5.722141862E-1,1.201579786E1
1.123105585E0,9.816526413E0,1.029297256E1,1.005564690E0,1.425905451E1
1.125106051E0,4.486733913E0,1.024030018E1,-1.060631394E0,1.123029242E1
1.127106517E0,-6.426336765E0,1.104954052E1,-2.130839586E0,1.295880501E1
1.129106617E0,-8.205228806E0,1.132247925E1,-2.205059767E0,1.415579756E1
1.131107450E0,-8.250718117E0,1.132966137E1,-1.891419291E0,1.414259676E1
1.133108250E0,-6.064812183E0,1.080772591E1,-2.176329374E0,1.258273800E1
1.135108750E0,-4.843470097E0,1.049408531E1,-2.537853718E0,1.183324683E1
1.137109416E0,-2.657563925E0,9.969755173E0,-2.899378300E0,1.071751178E1
1.139109449E0,-8.738836050E-1,9.761459351E0,-2.245761156E0,1.005451164E1
1.141109482E0,-2.920926213E-1,9.802161217E0,-1.769315004E0,9.964846120E0
1.143109515E0,2.202665508E-1,1.000566864E1,-8.930372596E-1,1.004785738E1
1.145109548E0,4.022258818E-1,1.005115795E1,-5.626373887E-1,1.007492544E1
1.147109581E0,5.506663918E-1,1.006073475E1,-6.607996821E-1,1.009743895E1
1.149109614E0,1.525106430E0,9.857227325E0,-3.016694188E-1,9.979072332E0
1.151108214E0,1.594538331E0,9.857227325E0,-3.016694188E-1,9.989919293E0
1.153107314E0,1.594538331E0,9.754277229E0,-9.097966552E-2,9.884166837E0
1.155107314E0,1.594538331E0,9.754277229E0,-9.097966552E-2,9.884166837E0
1.157107314E0,1.719036818E0,9.490914345E0,4.405331016E-1,9.655392902E0
1.159107314E0,1.723825216E0,9.234735489E0,7.350199223E-1,9.422959578E0
1.161107314E0,1.671152830E0,9.131784439E0,1.046266198E0,9.342211290E0
1.163107314E0,1.484405041E0,8.995314598E0,1.041477680E0,9.176263880E0
1.165107314E0,1.285686255E0,8.748712540E0,1.300051570E0,8.937734295E0
1.167107280E0,1.118092179E0,8.693645477E0,1.355118155E0,8.869382561E0
1.169107646E0,8.523358107E-1,8.571541786E0,1.568202138E0,8.755401925E0
1.171107579E0,4.860229492E-1,8.595483780E0,1.498770237E0,8.738699671E0
1.173108412E0,3.423708379E-1,8.609848976E0,1.503558636E0,8.746851191E0
1.175108378E0,1.891419291E-1,8.717587471E0,1.472434044E0,8.843085887E0
1.177108344E0,2.513911724E-1,8.913911819E0,1.383848548E0,9.024192942E0
1.179108310E0,9.504981041E-1,9.052776337E0,1.450886250E0,9.217444166E0
1.181108276E0,1.359906554E0,9.086295128E0,1.613691926E0,9.328135217E0
1.183108509E0,2.001552582E0,9.289801598E0,1.527500629E0,9.624961539E0
1.185108542E0,7.755118370E0,9.483732224E0,1.757344007E0,1.237623916E1
1.187108575E0,8.877999306E0,1.006073475E1,2.013523579E0,1.356803348E1
1.189108608E0,4.501099288E-1,1.036001015E1,-4.453215301E-1,1.037934104E1
1.191107774E0,4.501099288E-1,1.036001015E1,-4.453215301E-1,1.037934104E1
1.193106940E0,4.501099288E-1,1.036001015E1,-4.453215301E-1,1.037934104E1
1.195106973E0,-9.720458984E-1,1.034803867E1,-1.939303428E-1,1.039540219E1
1.197107006E0,-3.165134668E0,1.005594635E1,-8.858546615E-2,1.054267432E1
1.199107006E0,-3.514688015E0,9.845256805E0,-1.771709323E-1,1.045530980E1
1.201106972E0,-2.214636564E0,9.639355659E0,-7.182605267E-1,9.916536231E0
1.203106938E0,-1.022324085E0,1.005594635E1,-1.383848548E0,1.020207039E1
1.205106904E0,-9.289502501E-1,1.020199299E1,-1.453280449E0,1.034676923E1
1.207106870E0,-5.458779931E-1,1.049647999E1,-1.168370485E0,1.057540375E1
1.209106836E0,3.265691042E0,1.094898319E1,-1.484405100E-1,1.142659203E1
1.211107669E0,3.265691042E0,1.094898319E1,-1.484405100E-1,1.142659203E1
1.213108569E0,1.278773022E1,1.123868179E1,2.221819162E0,1.716888153E1
1.215108569E0,1.414524269E1,1.110939503E1,3.141192675E0,1.825852240E1
1.217108602E0,3.667917013E0,1.107827091E1,2.700659513E0,1.197811602E1
1.219108635E0,-3.416525841E0,1.057548809E1,1.256955862E0,1.118452213E1
1.221108668E0,-1.077420712E1,9.905111313E0,1.233013868E0,1.468724250E1
1.223108701E0,-1.012298393E1,9.366415977E0,4.261679053E-1,1.379804954E1
1.225108734E0,-8.435071945E0,9.165303230E0,-2.370259613E-1,1.245830660E1
1.227108767E0,-5.279513836E0,9.009679794E0,-1.328781962E0,1.052678763E1
1.229108800E0,-1.795651317E0,9.864410400E0,-2.011129409E-1,1.002852943E1
1.231108833E0,-1.496376038E0,9.955389977E0,1.197100878E-1,1.006793233E1
1.233107966E0,-1.496376038E0,9.955389977E0,1.197100878E-1,1.006793233E1
1.235107966E0,-1.228225470E0,1.000566864E1,3.663128614E-1,1.008742424E1
1.237107966E0,-9.768342972E-1,1.003200436E1,5.578489900E-1,1.009487554E1
1.239107966E0,-3.878606856E-1,9.962572098E0,7.374141216E-1,9.997352565E0
1.241107966E0,8.858546615E-2,9.835680008E0,9.074024558E-1,9.877845302E0
1.243107966E0,3.782838583E-1,9.687239647E0,9.959878922E-1,9.745650442E0
1.245107932E0,1.077390790E0,9.440636635E0,1.046266198E0,9.559344326E0
1.247107898E0,1.496376038E0,9.466972351E0,9.624691010E-1,9.632707486E0
1.249107864E0,1.395819545E0,9.586683273E0,7.326257229E-1,9.715428392E0
1.251108697E0,1.266532660E0,9.632172585E0,5.003881454E-1,9.727961861E0
1.253109530E0,9.768342972E-1,9.572318077E0,1.292868853E-1,9.622899444E0
1.255109496E0,5.913678408E-1,9.340080261E0,3.184288144E-1,9.364198424E0
1.257109462E0,5.770025849E-1,9.251494408E0,5.602431893E-1,9.286385367E0
1.259109428E0,6.440402865E-1,9.201216698E0,9.457096457E-1,9.272084088E0
1.261109428E0,6.584054828E-1,9.383175850E0,9.720458984E-1,9.456339674E0
1.263109461E0,6.703764796E-1,9.486125946E0,9.840168953E-1,9.560558527E0
1.265109494E0,5.770025849E-1,9.696816444E0,1.082179189E0,9.774062254E0
1.267109527E0,4.788403511E-1,9.929053307E0,1.175553083E0,1.000986077E1
1.269109560E0,3.280056417E-1,1.024748230E1,8.092401624E-1,1.028461719E1
1.271108726E0,3.280056417E-1,1.024987698E1,7.110779285E-1,1.027974696E1
1.273107859E0,3.280056417E-1,1.024987698E1,7.110779285E-1,1.027974696E1
1.275107892E0,3.280056417E-1,1.024987698E1,7.110779285E-1,1.027974696E1
1.277107892E0,6.105214357E-1,1.026903057E1,4.022258818E-1,1.029502360E1
1.279107858E0,8.475474119E-1,1.034085655E1,-1.819593310E-1,1.037712677E1
1.281107158E0,9.050082564E-1,1.034325027E1,-3.327940404E-1,1.038809983E1
1.283106724E0,6.847416759E-1,1.042225933E1,1.340752989E-1,1.044558935E1
1.285106690E0,4.189853072E-1,1.044620132E1,8.858546615E-2,1.045497576E1
1.287106656E0,3.064578176E-1,1.036479855E1,-1.675941199E-1,1.037068238E1
1.289106622E0,2.418143749E-1,1.032888508E1,-2.370259613E-1,1.033443382E1
1.291107488E0,2.106897533E-1,1.034085655E1,-4.381389022E-1,1.035227850E1
1.293108354E0,-1.771709323E-1,1.032170296E1,-6.272808313E-1,1.034226391E1
1.295108387E0,-4.022258818E-1,1.022354031E1,-6.967126727E-1,1.025514362E1
1.297108420E0,-5.746083856E-1,1.004397583E1,-8.020575643E-1,1.009231993E1
1.299108453E0,-4.716577232E-1,9.888352394E0,-8.714894056E-1,9.937880451E0
1.301109086E0,-4.261679053E-1,9.828496933E0,-8.667010069E-1,9.875836252E0
1.303109119E0,-2.920926213E-1,9.771036148E0,-8.690952063E-1,9.813959037E0
1.305109152E0,-6.943184882E-2,9.771036148E0,-8.140285611E-1,9.805131855E0
1.307109185E0,4.309562966E-2,9.840468407E0,-6.584054828E-1,9.862564244E0
1.309109218E0,5.434837937E-1,1.025945377E1,4.884171486E-1,1.028544203E1
1.311108351E0,5.434837937E-1,1.025945377E1,4.884171486E-1,1.028544203E1
1.313107484E0,5.434837937E-1,1.025945377E1,4.884171486E-1,1.028544203E1
1.315106584E0,5.291185975E-1,1.026663589E1,7.374141216E-1,1.030667544E1
1.317106250E0,5.937620401E-1,1.012537861E1,1.034295082E0,1.019537207E1
1.319106250E0,8.690952063E-1,9.775824547E0,9.768342972E-1,9.862873683E0
1.321105583E0,9.720458984E-1,9.581894875E0,7.254431248E-1,9.658356503E0
1.323104883E0,1.007958889E0,9.021651268E0,5.219359994E-1,9.092776799E0
1.325104849E0,9.409212470E-1,8.976161003E0,6.703764796E-1,9.050204626E0
1.327104815E0,9.361328483E-1,9.086295128E0,6.248866320E-1,9.155740667E0
1.329104381E0,8.667010069E-1,9.591471672E0,4.477157295E-1,9.640951657E0
1.331104881E0,1.031900883E0,9.725546837E0,3.160346150E-1,9.785241877E0
1.333105347E0,1.826775908E0,9.828496933E0,6.224924326E-2,9.997016412E0
1.335104913E0,6.728005886E0,1.016847420E1,-9.337386489E-2,1.219313944E1
1.337104213E0,1.723825216E0,9.816526413E0,2.154781520E-1,9.969061893E0
1.339104213E0,-2.808398485E0,9.435848236E0,1.484405100E-1,9.846033139E0
1.341104246E0,-3.342305660E0,9.186851501E0,-1.675941236E-2,9.775966884E0
1.343104679E0,-1.989581585E0,8.813355446E0,-3.519476354E-1,9.041987405E0
1.345104379E0,-8.044517636E-1,8.784625053E0,-4.429273009E-1,8.832494810E0
1.347104079E0,9.074024558E-1,8.997709274E0,-5.913678408E-1,9.062663368E0
1.349103445E0,1.572990537E0,9.763854027E0,-6.272808313E-1,9.909622895E0
1.351102611E0,1.472434044E0,9.783007622E0,-5.123591423E-1,9.906453050E0
1.353101744E0,1.472434044E0,9.783007622E0,-5.123591423E-1,9.906453050E0
1.355100844E0,1.371877551E0,9.768642426E0,-4.405331016E-1,9.874335029E0
1.357099910E0,2.099714994E0,9.811738014E0,-7.900865376E-2,1.003420392E1
1.359098976E0,1.462857246E0,9.474155426E0,-5.937620401E-1,9.604797016E0
1.361097442E0,2.585737705E-1,9.201216698E0,-1.139639974E0,9.275129561E0
1.363096742E0,1.484405100E-1,9.026439667E0,-1.065419793E0,9.090311710E0
1.365096708E0,2.633621991E-1,8.968978882E0,-1.034295082E0,9.032259305E0
1.367096674E0,5.865794420E-1,8.925883293E0,-9.600749016E-1,8.996511092E0
1.369095974E0,6.727706790E-1,8.978555679E0,-7.900865674E-1,9.038325025E0
1.371096840E0,6.320692301E-1,9.036016464E0,-6.871358752E-1,9.084121353E0
1.373097306E0,3.136404157E-1,9.138967514E0,-4.501099288E-1,9.155418968E0
1.375098206E0,-1.077390760E-1,9.141361237E0,-1.987187415E-1,9.144155626E0
1.377098539E0,-3.064578176E-1,9.119813919E0,-1.125274822E-1,9.125655305E0
1.379098539E0,-6.679822803E-1,9.069535255E0,1.436521020E-2,9.094112185E0
1.381099205E0,-8.690952063E-1,9.052776337E0,1.244984865E-1,9.095250725E0
1.383099871E0,-8.834604025E-1,9.052776337E0,2.274491638E-1,9.098625985E0
1.385099871E0,-9.121908545E-1,8.980949402E0,3.375824392E-1,9.033465903E0
1.387099871E0,-1.003170490E0,8.858845711E0,3.782838583E-1,8.923485700E0
1.389100304E0,-1.644816518E0,8.267477989E0,1.359906554E0,8.538498669E0
1.391099804E0,-1.644816518E0,8.267477989E0,1.359906554E0,8.538498669E0
1.393099370E0,-1.644816518E0,8.267477989E0,1.359906554E0,8.538498669E0
1.395099670E0,-1.742978811E0,8.214805603E0,1.596932530E0,8.548169379E0
1.397100370E0,-1.802833915E0,8.188468933E0,1.826775908E0,8.581278682E0
1.399100403E0,-1.807622313E0,8.080730438E0,2.262520552E0,8.583979385E0
1.401101069E0,-1.520318031E0,7.601889610E0,2.557007313E0,8.163233364E0
1.403101035E0,-1.288080573E0,7.999327183E0,2.707842112E0,8.542879833E0
1.405101335E0,-1.003170490E0,8.753500938E0,2.798821688E0,9.244648860E0
1.407101635E0,-9.050082564E-1,9.179668427E0,2.703053713E0,9.612068026E0
1.409102268E0,-9.121908545E-1,9.545981407E0,2.566584110E0,9.926993864E0
1.411103101E0,-8.236053586E-1,9.500492096E0,2.504334927E0,9.859481187E0
1.413103967E0,-4.477157295E-1,9.909899712E0,2.533065319E0,1.023830951E1
1.415104833E0,-1.747767180E-1,1.029536629E1,2.511517525E0,1.059871852E1
1.417105733E0,3.351882473E-2,1.079814911E1,2.343923569E0,1.104966630E1
1.419106666E0,6.081272364E-1,1.100644493E1,2.133233786E0,1.122774844E1
1.421107599E0,1.211466074E0,1.111897182E1,2.118868589E0,1.138370715E1
1.423108299E0,1.484405041E0,1.107348251E1,2.073378563E0,1.136329054E1
1.425108332E0,2.013523579E0,1.139430523E1,1.994369984E0,1.174146415E1
1.427108365E0,2.851494312E0,1.190666389E1,1.891419291E0,1.238858878E1
1.429109065E0,2.410961151E0,1.207186413E1,1.110909581E0,1.236028953E1
1.431108231E0,2.410961151E0,1.207186413E1,1.110909581E0,1.236028953E1
1.433107797E0,2.410961151E0,1.207186413E1,1.110909581E0,1.236028953E1
1.435107363E0,2.236184359E0,1.212214279E1,8.858546019E-1,1.235846288E1
1.437107363E0,1.429338455E0,1.177258873E1,9.121908545E-1,1.189407188E1
1.439107363E0,-1.273715258E0,1.104475212E1,8.810662031E-1,1.115281030E1
1.441107363E0,-1.826775908E0,1.080772591E1,7.757213712E-1,1.098843907E1
1.443107363E0,-1.896207690E0,1.048211479E1,3.998316824E-1,1.065974669E1
1.445107363E0,-1.110909581E0,1.058506489E1,2.322375625E-1,1.064573403E1
1.447107363E0,-6.584054828E-1,1.068083286E1,2.513911724E-1,1.070405932E1
1.449107329E0,6.512228847E-1,1.088912868E1,3.902548850E-1,1.091556291E1
1.451108162E0,8.619126081E-1,1.083885002E1,4.740519226E-1,1.088339507E1
1.453108995E0,1.058237195E0,1.066886234E1,5.363011956E-1,1.073462196E1
1.455109095E0,1.084573388E0,1.056351757E1,5.123591423E-1,1.063140230E1
1.457109061E0,1.115697980E0,1.037916374E1,4.213795066E-1,1.044745819E1
1.459109027E0,9.481038451E-1,1.013734913E1,2.896983922E-1,1.018570927E1
1.461108993E0,9.576807022E-1,1.002721596E1,1.436520964E-1,1.007386957E1
1.463108993E0,1.034295082E0,9.850045204E0,-2.442085743E-1,9.907209227E0
1.465108993E0,1.125274777E0,9.627384186E0,-2.873041928E-1,9.697180687E0
1.467109026E0,1.106121182E0,9.550769806E0,-2.298433632E-1,9.617355974E0
1.469108392E0,1.089361787E0,9.464578629E0,-1.915361285E-1,9.528989653E0
1.471107558E0,1.089361787E0,9.464578629E0,-1.915361285E-1,9.528989653E0
1.473106691E0,1.089361787E0,9.464578629E0,-1.915361285E-1,9.528989653E0
1.475105957E0,1.098938584E0,9.464578629E0,-8.858546615E-2,9.528576075E0
1.477105090E0,9.720458984E-1,9.433453560E0,9.576806799E-3,9.483407141E0
1.479104190E0,1.048660398E0,9.455001831E0,-1.915361360E-2,9.512997168E0
1.481103256E0,1.139639974E0,9.541193008E0,-5.027823523E-2,9.609145185E0
1.483102322E0,1.173158884E0,9.634567261E0,-7.661445439E-2,9.706032034E0
1.485101388E0,1.290474772E0,9.670479774E0,-6.464344263E-2,9.756417528E0
1.487100454E0,1.558625340E0,9.701604843E0,2.633621916E-2,9.826044122E0
1.489100420E0,1.884236693E0,9.711181641E0,2.154781520E-1,9.894636305E0
1.491100586E0,2.279279947E0,9.639355659E0,3.950432837E-1,9.913039585E0
1.493101419E0,2.408566952E0,9.603442192E0,4.381389022E-1,9.910563172E0
1.495101852E0,2.621650934E0,9.534010887E0,3.711012602E-1,9.894853883E0
1.497101885E0,3.011905670E0,9.459790230E0,3.088520169E-1,9.932502027E0
1.499101918E0,3.280056238E0,9.428665161E0,3.495534360E-1,9.989028143E0
1.501101951E0,3.770867586E0,9.359233856E0,4.141969085E-1,1.009882467E1
1.503101984E0,3.900154591E0,9.404723167E0,3.471592367E-1,1.018727359E1
1.505102017E0,3.780444384E0,9.452607155E0,2.825157940E-1,1.018446645E1
1.507101150E0,3.782838583E0,9.519645691E0,1.675941199E-1,1.024507734E1
1.510108150E0,3.713406801E0,9.835680008E0,3.112462163E-2,1.051337054E1
1.512102150E0,3.713406801E0,9.835680008E0,3.112462163E-2,1.051337054E1
1.514101150E0,3.730166197E0,9.900322914E0,1.149216816E-1,1.058034691E1
1.516114650E0,3.730166197E0,9.900322914E0,1.149216816E-1,1.058034691E1
1.518122983E0,3.727771997E0,9.972148895E0,1.747767180E-1,1.064756238E1
1.520129233E0,3.720589399E0,1.005834103E1,2.250549644E-1,1.072677302E1
1.522131833E0,3.713406801E0,1.007988834E1,2.226607651E-1,1.074444586E1
1.524131499E0,3.672705412E0,1.008707142E1,1.508347094E-1,1.073594551E1
1.526131213E0,3.605667830E0,1.010143661E1,-1.675941236E-2,1.072567681E1
1.528130963E0,3.562572241E0,1.006552315E1,-2.657563984E-1,1.068069771E1
1.530130740E0,3.481169224E0,1.005355263E1,-3.878606856E-1,1.064626204E1
1.532130540E0,3.452438831E0,9.996091843E0,-6.703764796E-1,1.059672547E1
1.534133176E0,3.488351822E0,9.912294388E0,-9.457096457E-1,1.055066563E1
1.536134259E0,3.435679436E0,9.794978142E0,-1.175553083E0,1.044640680E1
1.538134105E0,3.390189648E0,9.711181641E0,-1.261744261E0,1.036303205E1
1.540133962E0,3.169923067E0,9.548376083E0,-1.395819545E0,1.015717531E1
1.542133828E0,2.885013103E0,9.476549149E0,-1.520318031E0,1.002195846E1
1.544134203E0,2.753331900E0,9.349657059E0,-1.568202138E0,9.871989749E0
1.546134144E0,2.463633537E0,9.280224800E0,-1.520318031E0,9.721287439E0
1.548134088E0,2.149993181E0,9.261071205E0,-1.412579060E0,9.611726699E0
1.550134035E0,1.656787634E0,9.411906242E0,-1.204283476E0,9.632197209E0
1.552133985E0,1.656787634E0,9.411906242E0,-1.204283476E0,9.632197209E0
1.554133937E0,1.656787634E0,9.411906242E0,-1.204283476E0,9.632197209E0
1.556134209E0,1.599326730E0,9.457395554E0,-1.256955862E0,9.673681548E0
1.558135339E0,1.367089152E0,9.615413666E0,-1.391031146E0,9.811222165E0
1.560136380E0,9.911994934E-1,9.797372818E0,-1.556231141E0,9.969596077E0
1.562137380E0,7.565677166E-1,9.864410400E0,-1.620874524E0,1.002527912E1
1.564137572E0,2.753331959E-1,9.933841705E0,-1.594538331E0,1.006476884E1
1.566138497E0,-9.816227108E-2,9.900322914E0,-1.549048543E0,1.002125646E1
1.568138425E0,-6.584054828E-1,9.907505989E0,-1.556231141E0,1.005057352E1
1.570139287E0,-1.314416766E0,9.974543571E0,-1.654393315E0,1.019589271E1
1.572139220E0,-1.654393315E0,1.000566864E1,-1.659181833E0,1.027634694E1
1.574140086E0,-2.331952572E0,1.006312943E1,-1.568202138E0,1.044814982E1
1.576139386E0,-2.643198729E0,1.008707142E1,-1.522712231E0,1.053822385E1
1.578139419E0,-3.287238836E0,1.014932060E1,-1.426944256E0,1.076340177E1
1.580139452E0,-4.149151325E0,1.017565632E1,-1.278503656E0,1.106318263E1
1.582139885E0,-4.515464306E0,1.017565632E1,-1.185129881E0,1.119544248E1
1.584141185E0,-5.080795288E0,1.014453220E1,-9.911994934E-1,1.138896355E1
1.586141451E0,-5.514145851E0,1.007270622E1,-7.852981687E-1,1.151007855E1
1.588142384E0,-5.631461620E0,1.005594635E1,-6.823474765E-1,1.154560588E1
1.590143050E0,-4.853046894E0,9.562741280E0,1.077390760E-1,1.072425721E1
1.592143050E0,-4.711789131E0,9.531616211E0,2.466027737E-1,1.063548200E1
1.594142050E0,-4.711789131E0,9.531616211E0,2.466027737E-1,1.063548200E1
1.596142216E0,-4.711789131E0,9.531616211E0,2.466027737E-1,1.063548200E1
1.598142449E0,-4.149151325E0,9.718363762E0,7.182604820E-2,1.056727069E1
1.600142649E0,-3.526659012E0,9.902717590E0,4.788403213E-2,1.051206128E1
1.602143549E0,-3.268085241E0,9.998485565E0,-1.101332754E-1,1.051961140E1
1.604143515E0,-2.542642117E0,1.005115795E1,-3.184288144E-1,1.037266610E1
1.606144381E0,-2.231395960E0,9.771036148E0,-1.101332754E-1,1.002319334E1
1.608145247E0,-1.963245392E0,9.799766541E0,-3.232172430E-1,9.999711301E0
1.610146113E0,-1.132457376E0,9.761459351E0,-6.991068721E-1,9.851766277E0
1.612146979E0,-9.026140571E-1,9.761459351E0,-6.177040339E-1,9.822543411E0
1.614147845E0,-7.493851185E-1,9.766247749E0,-3.830722570E-1,9.802444466E0
1.616148478E0,-6.081272364E-1,9.768642426E0,1.412578970E-1,9.788572284E0
1.618148444E0,-4.453215301E-1,9.565135002E0,7.565677166E-1,9.605337765E0
1.620148444E0,-3.926490843E-1,9.268254280E0,1.053448796E0,9.336191144E0
1.622148477E0,-4.141969085E-1,9.165303230E0,9.050082564E-1,9.219185557E0
1.624149177E0,-7.900865376E-2,8.849268913E0,9.361328483E-1,8.898996987E0
1.626149210E0,5.985504389E-2,8.688857079E0,1.139639974E0,8.763480999E0
1.628150143E0,3.303998411E-1,8.423100471E0,1.496376038E0,8.561362441E0
1.630150176E0,9.217676520E-1,7.688080788E0,1.884236693E0,7.969102190E0
1.632150242E0,9.217676520E-1,7.688080788E0,1.884236693E0,7.969102190E0
1.634149408E0,9.217676520E-1,7.688080788E0,1.884236693E0,7.969102190E0
1.636150074E0,7.972691655E-1,7.501333237E0,1.836352706E0,7.763879810E0
1.638150040E0,7.685387731E-1,7.355287075E0,2.602497339E0,7.839891084E0
1.640150006E0,1.757344007E0,8.516474724E0,4.328716755E0,9.713721657E0
1.642149972E0,2.056619167E0,9.280224800E0,2.825158119E0,9.916338696E0
1.644149572E0,3.639186621E-1,9.493309021E0,3.998316824E-1,9.508691726E0
1.646150205E0,2.489969730E-1,9.567529678E0,-2.106897533E-1,9.573087998E0
1.648150171E0,8.619126081E-1,9.823708534E0,-8.834604025E-1,9.900941622E0
1.650150404E0,1.189918280E0,9.888352394E0,-6.871358752E-1,9.983364878E0
1.652151304E0,1.273715258E0,9.847650528E0,-4.501099288E-1,9.939877787E0
1.654152204E0,1.209071875E0,9.797372818E0,-1.173158810E-1,9.872392413E0
1.656152470E0,1.036689281E0,9.914688110E0,-5.985504389E-2,9.968919080E0
1.658153170E0,9.074024558E-1,9.991303444E0,-3.112462163E-2,1.003247190E1
1.660153903E0,6.200982332E-1,1.011819553E1,3.950432837E-1,1.014487367E1
1.662153936E0,5.650315881E-1,1.013734913E1,5.889736414E-1,1.017015231E1
1.664154636E0,4.405331016E-1,1.014692593E1,9.169792533E-1,1.019779516E1
1.666154669E0,3.758896589E-1,1.011580181E1,1.067813993E0,1.017894720E1
1.668154035E0,2.513911724E-1,1.009425354E1,1.218648672E0,1.017065665E1
1.670154035E0,3.088520169E-1,1.003918743E1,1.388636947E0,1.013947663E1
1.672153168E0,-4.022258818E-1,9.790189743E0,1.304839969E0,9.884948569E0
1.674152301E0,-4.022258818E-1,9.790189743E0,1.304839969E0,9.884948569E0
1.676152301E0,-4.692635238E-1,9.804554939E0,1.271321058E0,9.897765558E0
1.678152301E0,-3.830722570E-1,9.845256805E0,1.276109457E0,9.935002832E0
1.680152301E0,4.548983276E-2,9.991303444E0,1.125274777E0,1.005457394E1
1.682152267E0,1.340752989E-1,1.003200436E1,1.063025594E0,1.008905898E1
1.684152233E0,2.082955539E-1,1.006552315E1,1.041477680E0,1.012140400E1
1.686152199E0,4.070142806E-1,1.010622501E1,9.864110947E-1,1.016240382E1
1.688152165E0,5.051765442E-1,1.013495541E1,9.097966552E-1,1.018824099E1
1.690152131E0,5.602431893E-1,1.016847420E1,8.307880163E-1,1.021772718E1
1.692152964E0,6.296750307E-1,1.017805099E1,7.996633649E-1,1.022881587E1
1.694153797E0,8.140285611E-1,1.019959831E1,7.876923680E-1,1.026230517E1
1.696153763E0,1.072602391E0,1.019241619E1,8.116343617E-1,1.028078664E1
1.698153763E0,1.127668977E0,1.016847420E1,7.709329724E-1,1.025981688E1
1.700153796E0,1.209071875E0,1.012537861E1,6.248866320E-1,1.021643921E1
1.702153829E0,1.391031146E0,1.013016701E1,5.746083856E-1,1.024135860E1
1.704153862E0,1.438915253E0,1.014213753E1,5.195417404E-1,1.025686864E1
1.706153895E0,1.280897856E0,1.008707142E1,3.519476354E-1,1.017416219E1
1.708153928E0,1.101332784E0,9.991303444E0,1.915361285E-1,1.005364434E1
1.710153961E0,1.101332784E0,9.960178375E0,1.795651317E-1,1.002249125E1
1.712153127E0,8.906430602E-1,9.785401344E0,3.351882473E-2,9.825906983E0
1.714152227E0,8.906430602E-1,9.785401344E0,3.351882473E-2,9.825906983E0
1.716151793E0,8.906430602E-1,9.785401344E0,3.351882473E-2,9.825906983E0
1.718151759E0,6.033388376E-1,9.553164482E0,-2.873042040E-2,9.572240846E0
1.720151725E0,6.200982332E-1,9.553164482E0,-3.351882473E-2,9.573327371E0
1.722151658E0,6.200982332E-1,9.553164482E0,-3.351882473E-2,9.573327371E0
1.724151624E0,7.062895298E-1,9.615413666E0,3.160346150E-1,9.646496916E0
1.726151590E0,9.361328483E-1,9.581894875E0,6.009446383E-1,9.646252565E0
1.728152223E0,1.534683347E0,9.529222488E0,6.081272364E-1,9.671150549E0
1.730152223E0,1.877054095E0,9.361627579E0,5.243301988E-1,9.562338896E0
1.732153123E0,2.454056740E0,9.136572838E0,3.375824392E-1,9.466431197E0
1.734154023E0,2.588132143E0,9.059958458E0,9.097966552E-2,9.422820838E0
1.736154056E0,2.473210335E0,9.105448723E0,7.182605099E-3,9.435359950E0
1.738154089E0,2.121262789E0,9.251494408E0,-5.506663769E-2,9.491729923E0
1.740154122E0,1.841141105E0,9.447818756E0,-1.221042871E-1,9.626317534E0
1.742154155E0,1.731007814E0,9.534010887E0,-1.628057212E-1,9.691246429E0
1.744154188E0,1.587355733E0,9.608230591E0,-2.298433632E-1,9.741181719E0
1.746154221E0,1.391031146E0,9.569923401E0,-3.303998411E-1,9.676133815E0
1.748154221E0,1.268926859E0,9.531616211E0,-3.974374831E-1,9.623920174E0
1.750154221E0,9.528923035E-1,9.450213432E0,-4.764461517E-1,9.510075636E0
1.752153354E0,1.173158810E-1,9.493309021E0,-4.955997467E-1,9.506960518E0
1.754152487E0,1.173158810E-1,9.553164482E0,-4.955997467E-1,9.566730567E0
1.756152487E0,1.173158810E-1,9.553164482E0,-4.955997467E-1,9.566730567E0
1.758152487E0,2.394201607E-2,9.665691376E0,-3.950432837E-1,9.673790477E0
1.760151787E0,5.985504389E-2,9.646537781E0,-2.944868207E-1,9.651217347E0
1.762151753E0,1.029506698E-1,9.593865395E0,-2.394201756E-1,9.597404549E0
1.764151719E0,2.537853718E-1,9.450213432E0,-1.053448766E-1,9.454207448E0
1.766151685E0,3.375824392E-1,9.299378395E0,1.125274822E-1,9.306184120E0
1.768150985E0,3.495534360E-1,9.217975616E0,2.442085743E-1,9.227832893E0
1.770150285E0,3.327940404E-1,9.129390717E0,4.620809257E-1,9.147133185E0
1.772151118E0,2.657563984E-1,9.088688850E0,6.392518282E-1,9.115016971E0
1.774151718E0,1.675941199E-1,9.110237122E0,6.823474765E-1,9.137292065E0
1.776152118E0,-1.867477298E-1,9.229947090E0,7.110779285E-1,9.259180840E0
1.778152151E0,-6.177040339E-1,9.378387451E0,7.110779285E-1,9.425568486E0
1.780151517E0,-9.121908545E-1,9.586683273E0,6.775590777E-1,9.653790688E0
1.782151583E0,-1.015141487E0,9.680056572E0,6.655880809E-1,9.755870795E0
1.784151249E0,-1.036689281E0,9.818920135E0,6.081272364E-1,9.892205822E0
1.786151282E0,-9.648633003E-1,9.869198799E0,5.865794420E-1,9.933585534E0
1.788151315E0,-7.637503147E-1,9.991303444E0,6.272808313E-1,1.004006675E1
1.790150681E0,-5.674257874E-1,1.012298393E1,7.733271718E-1,1.016832389E1
1.792149814E0,3.830722719E-2,1.014213753E1,9.337386489E-1,1.018510132E1
1.794148914E0,3.830722719E-2,1.014213753E1,9.337386489E-1,1.018510132E1
1.796148880E0,1.915361285E-1,1.013256073E1,9.097966552E-1,1.017512668E1
1.798148846E0,3.639186621E-1,1.004397583E1,8.475474119E-1,1.008623933E1
1.800148812E0,3.950432837E-1,1.005355263E1,7.517793179E-1,1.008935834E1
1.802148345E0,4.309563041E-1,1.007749462E1,6.751648784E-1,1.010927637E1
1.804148311E0,5.841852427E-1,1.022114658E1,5.339069963E-1,1.025173968E1
1.806148277E0,7.805097699E-1,1.036719227E1,4.908113480E-1,1.040811063E1
1.808148277E0,5.746083856E-1,1.060421848E1,5.554547906E-1,1.063429144E1
1.810148310E0,-8.834604025E-1,1.073111153E1,5.746083856E-1,1.078273767E1
1.812149210E0,-1.288080573E0,1.075026512E1,4.405331016E-1,1.083611652E1
1.814150110E0,-1.400607944E0,1.080293751E1,1.580173075E-1,1.089450003E1
1.816150143E0,-1.101332784E0,1.086279202E1,-1.053448766E-1,1.091898722E1
1.818150176E0,-1.048660398E0,1.086758041E1,-2.489969730E-1,1.092089704E1
1.820150209E0,-1.374271750E0,1.092743587E1,-3.950432837E-1,1.102059603E1
1.822149575E0,-1.601720929E0,1.075026512E1,-3.232172430E-1,1.087373806E1
1.824148941E0,-1.721431017E0,1.048929691E1,-2.298433632E-1,1.063209774E1
1.826148941E0,-1.168370485E0,9.821314812E0,2.394201607E-2,9.890595909E0
1.828149607E0,-7.445967197E-1,9.869198799E0,2.394201700E-3,9.897247847E0
1.830150273E0,-4.405331016E-1,1.006073475E1,1.580173075E-1,1.007161470E1
1.832149406E0,-1.374271750E0,9.342473984E0,6.440402865E-1,9.464947484E0
1.834148806E0,-1.374271750E0,9.342473984E0,6.440402865E-1,9.464947484E0
1.836149272E0,-1.757344007E0,9.268254280E0,4.405331016E-1,9.443667972E0
1.838149238E0,-2.070984364E0,9.215581894E0,3.160346150E-1,9.450703876E0
1.840149871E0,-3.622427225E0,9.299378395E0,9.576806799E-3,9.980005474E0
1.842149704E0,-4.027047157E0,9.364022255E0,-5.267243832E-2,1.019337020E1
1.844150037E0,-4.189853191E0,9.536404610E0,-7.661445439E-2,1.041651345E1
1.846150003E0,-4.101267338E0,9.952995300E0,-2.873042040E-2,1.076491220E1
1.848149969E0,-4.268861771E0,1.053957558E1,2.394201756E-1,1.137379252E1
1.850150602E0,-4.786009312E0,1.083406162E1,1.723825186E-1,1.184535741E1
1.852151468E0,-5.126285076E0,1.122671127E1,2.322375625E-1,1.234389643E1
1.854152334E0,-5.983409405E0,1.103996372E1,2.705447972E-1,1.256006296E1
1.856152367E0,-6.258742332E0,1.076463032E1,2.944868207E-1,1.245535403E1
1.858152400E0,-5.696105003E0,1.003918743E1,1.723825186E-1,1.154385604E1
1.860152433E0,-5.056853294E0,9.550769806E0,-4.237737060E-1,1.081520010E1
1.862152899E0,-5.078401089E0,9.466972351E0,-2.896983922E-1,1.074698322E1
1.864152932E0,-4.805162907E0,9.301773071E0,5.746084079E-2,1.046976001E1
1.866152965E0,-4.170699596E0,9.071929932E0,9.097966552E-2,9.985135207E0
1.868152998E0,-4.163516521E0,8.889969826E0,7.422025204E-1,9.844658344E0
1.870152998E0,-3.921702385E0,8.688857079E0,1.012747288E0,9.586534514E0
1.872152098E0,-5.985504389E-1,8.140584946E0,1.118092179E0,8.238781221E0
1.874151198E0,-5.985504389E-1,8.140584946E0,1.118092179E0,8.238781221E0
1.876151164E0,-5.985504389E-1,8.140584946E0,1.118092179E0,8.238781221E0
1.878151464E0,2.686294317E0,8.116642952E0,4.548983276E-2,8.549744984E0
1.880152097E0,3.543418646E-1,8.272266388E0,-4.501099288E-1,8.292077442E0
1.882152630E0,3.543418646E-1,8.324938774E0,-1.053448766E-1,8.333142342E0
1.884153896E0,-1.740584612E0,8.095095634E0,-7.182605099E-3,8.280112301E0
1.886153896E0,-1.259350061E0,7.142202854E0,-3.040636182E-1,7.258751881E0
1.888153929E0,-8.068459630E-1,6.878840923E0,-3.543418646E-1,6.935056670E0
1.890153962E0,-1.513135433E0,7.273883820E0,-4.046200812E-1,7.440610329E0
1.892154862E0,-1.565807939E0,7.759906769E0,-6.464344859E-1,7.942656049E0
1.894155762E0,-1.070208192E0,7.989750385E0,-7.469909191E-1,8.095644028E0
1.896155128E0,-5.770025849E-1,8.293813705E0,-8.451532125E-1,8.356707588E0
1.898155161E0,3.447650373E-1,9.112630844E0,-1.003170490E0,9.174162352E0
1.900155194E0,9.050082564E-1,9.850045204E0,-1.398213744E0,9.989866473E0
1.902155360E0,1.063025594E0,1.012059021E1,-1.692700624E0,1.031608477E1
1.904155360E0,1.079784989E0,1.045817184E1,-2.334346771E0,1.076979428E1
1.906155360E0,8.667010069E-1,1.071914005E1,-2.844311714E0,1.112390414E1
1.908155360E0,7.541735172E-1,1.081969643E1,-3.023876667E0,1.125959318E1
1.910155360E0,6.679822803E-1,1.100883865E1,-3.299209833E0,1.151197265E1
1.912154460E0,7.398083210E-1,1.131050777E1,-2.935291290E0,1.170857965E1
1.914153560E0,7.589619160E-1,1.134402657E1,-2.691082716E0,1.168353063E1
1.916152626E0,7.589619160E-1,1.134402657E1,-2.691082716E0,1.168353063E1
1.918152592E0,7.781155705E-1,1.135839176E1,-2.437297344E0,1.164297838E1
1.920153358E0,7.206547260E-1,1.128417206E1,-1.908178806E0,1.146704097E1
1.922153324E0,6.009446383E-1,1.121952820E1,-1.649604917E0,1.135606199E1
1.924153290E0,3.711012602E-1,1.097531986E1,-1.290474772E0,1.105715548E1
1.926153256E0,3.830722719E-2,1.079096603E1,-1.199495077E0,1.085749528E1
1.928153222E0,-1.508347094E-1,1.043901825E1,-1.046266198E0,1.049240326E1
1.930153188E0,-5.841852427E-1,1.018523312E1,-9.193734527E-1,1.024331458E1
1.932154054E0,-8.954314590E-1,1.000327396E1,-7.900865674E-1,1.007430019E1
1.934154920E0,-1.012747288E0,9.938630104E0,-6.919242740E-1,1.001402939E1
1.936154953E0,-1.132457376E0,9.794978142E0,-4.668693244E-1,9.871272637E0
1.938154653E0,-1.163581967E0,9.663297653E0,-2.082955539E-1,9.735329043E0
1.940154686E0,-1.113303781E0,9.490914345E0,1.436521020E-2,9.555998470E0
1.942154819E0,-1.096544385E0,9.426271439E0,1.244984865E-1,9.490653439E0
1.944154219E0,-1.053448796E0,9.308955193E0,3.399766386E-1,9.374539202E0
1.946154252E0,-1.010353088E0,9.239523888E0,4.141969085E-1,9.303825778E0
1.948154252E0,-7.781155705E-1,9.131784439E0,4.644751251E-1,9.176638166E0
1.950154218E0,-6.751648784E-1,9.105448723E0,5.267243981E-1,9.145626422E0
1.952153318E0,-4.501099288E-1,9.229947090E0,6.488286853E-1,9.263665630E0
1.954152418E0,-4.501099288E-1,9.229947090E0,6.488286853E-1,9.263665630E0
1.956152584E0,-4.141969085E-1,9.296984673E0,7.158663273E-1,9.333699571E0
1.958152550E0,3.351882473E-2,9.332897186E0,7.350199223E-1,9.361855996E0
1.960152516E0,1.101332754E-1,9.505280495E0,9.361328483E-1,9.551901975E0
1.962152482E0,5.506663769E-2,9.562741280E0,1.051054597E0,9.620486936E0
1.964152482E0,5.746084079E-2,9.665691376E0,1.127668977E0,9.731419672E0
1.966152515E0,6.703764945E-2,9.727940559E0,1.118092179E0,9.792213830E0
1.968152548E0,-3.591302410E-2,9.895534515E0,1.039083481E0,9.950004401E0
1.970152581E0,-2.681505978E-1,1.007988834E1,8.834604025E-1,1.012208259E1
1.972153481E0,-3.375824392E-1,1.017086792E1,8.427590132E-1,1.021130545E1
1.974154414E0,-3.375824392E-1,1.035522175E1,8.714894056E-1,1.039731086E1
1.976155347E0,-3.064578176E-1,1.048211479E1,7.852981687E-1,1.051595645E1
1.978155380E0,-3.208230138E-1,1.051084518E1,6.799532771E-1,1.053770043E1
1.980154613E0,-6.368576288E-1,1.049408531E1,2.657563984E-1,1.051675048E1
1.982154113E0,-7.422025204E-1,1.048690319E1,1.388636976E-1,1.051405185E1
1.984154113E0,-8.164227605E-1,1.050845051E1,3.112462163E-2,1.054016352E1
1.986154113E0,-8.475474119E-1,1.056591129E1,-5.746084079E-2,1.060000565E1
1.988155046E0,-9.457096457E-1,1.061140156E1,-5.027823523E-2,1.065357863E1
1.990155046E0,-1.115697980E0,1.065210247E1,-1.125274822E-1,1.071096314E1
1.992154179E0,-1.596932530E0,1.058985329E1,-1.268926859E-1,1.071033556E1
1.994153312E0,-1.596932530E0,1.058985329E1,-1.268926859E-1,1.071033556E1
1.996153078E0,-1.764526606E0,1.054436398E1,-7.182604820E-2,1.069122653E1
1.998153044E0,-1.881842494E0,1.047253704E1,-6.224924326E-2,1.064045291E1
2.000153010E0,-1.869871497E0,1.025705910E1,-1.292868853E-1,1.042690730E1
2.002152943E0,-1.805228114E0,1.015889740E1,-1.771709323E-1,1.031956561E1
2.004152909E0,-1.707065821E0,1.005594635E1,-2.082955539E-1,1.020193696E1
2.006152875E0,-1.527500629E0,9.873987198E0,-9.576806426E-2,9.991899363E0
2.008152841E0,-1.285686255E0,9.703998566E0,1.436521020E-2,9.788809104E0
2.010152841E0,-1.156399369E0,9.720758438E0,7.900865376E-2,9.789619323E0
2.012153707E0,-1.055842996E0,9.797372818E0,1.843535304E-1,9.855825931E0
2.014154607E0,-1.175553083E0,9.811738014E0,2.657563984E-1,9.885482000E0
2.016154640E0,-1.189918280E0,9.840468407E0,2.274491638E-1,9.914759558E0
2.018154673E0,-1.024718285E0,9.933841705E0,1.556231081E-1,9.987766374E0
2.020154706E0,-1.039083481E0,9.984120369E0,1.077390760E-1,1.003862350E1
2.022154439E0,-1.125274777E0,9.969755173E0,-4.788403399E-3,1.003305958E1
2.024154472E0,-1.328781962E0,9.919476509E0,-1.723825186E-1,1.000956500E1
2.026154472E0,-1.290474772E0,9.842862129E0,-3.830722719E-2,9.927171172E0
2.028154438E0,-1.000776291E0,9.754277229E0,3.711012602E-1,9.812501903E0
2.030154571E0,-8.738836050E-1,9.694421768E0,5.746083856E-1,9.750674888E0
2.032153671E0,-7.254431248E-1,9.076718330E0,1.125274777E0,9.174929248E0
2.034152771E0,-7.254431248E-1,9.076718330E0,1.125274777E0,9.174929248E0
2.036152537E0,-7.254431248E-1,9.076718330E0,1.125274777E0,9.174929248E0
2.038152503E0,1.340752989E-1,9.064746857E0,1.958456993E0,9.274867414E0
2.040152469E0,4.335899353E0,8.856451035E0,3.011905670E0,1.031059280E1
2.042153235E0,2.837129116E0,8.873210907E0,2.422932148E0,9.625683021E0
2.044152801E0,-1.920149803E0,8.889969826E0,5.339069963E-1,9.110630903E0
2.046152834E0,-3.222595453E0,8.597877502E0,1.675941236E-2,9.181987796E0
2.048151267E0,-3.608062029E0,8.609848976E0,1.915361360E-2,9.335308129E0
2.050151300E0,-3.248931646E0,8.791808128E0,1.604115069E-1,9.374282845E0
2.052152200E0,-2.240972757E0,9.119813919E0,6.344634295E-1,9.412518720E0
2.054153100E0,-1.821987510E0,9.325715065E0,8.355764151E-1,9.538699487E0
2.056153333E0,-1.146822572E0,9.648932457E0,1.053448796E0,9.773784013E0
2.058153366E0,-6.895300746E-1,9.840468407E0,1.120486379E0,9.928029004E0
2.060153366E0,-3.687070608E-1,9.895534515E0,1.091755986E0,9.962403293E0
2.062153132E0,-2.298433632E-1,9.885957718E0,1.041477680E0,9.943322570E0
2.064153132E0,-3.830722719E-2,9.804554939E0,9.097966552E-1,9.846750477E0
2.066153132E0,1.412578970E-1,9.723152161E0,8.690952063E-1,9.762938503E0
2.068152232E0,2.489969730E-1,9.689633369E0,8.595184088E-1,9.730866674E0
2.070152232E0,4.165911078E-1,9.663297653E0,8.834604025E-1,9.712536845E0
2.072151365E0,6.200982332E-1,9.682451248E0,8.595184088E-1,9.740285206E0
2.074150465E0,6.607996821E-1,9.684844971E0,8.403648138E-1,9.743669296E0
2.076150431E0,6.607996821E-1,9.684844971E0,8.403648138E-1,9.743669296E0
2.078150397E0,7.182605267E-1,9.720758438E0,7.685387731E-1,9.777509634E0
2.080149697E0,7.038952708E-1,9.804554939E0,7.110779285E-1,9.855475530E0
2.082149297E0,7.302315235E-1,9.842862129E0,6.847416759E-1,9.893636548E0
2.084149263E0,8.547300100E-1,9.960178375E0,6.200982332E-1,1.001599913E1
2.086148563E0,9.696516991E-1,1.001285076E1,5.650315881E-1,1.007554790E1
2.088148563E0,1.046266198E0,1.008228302E1,4.836287498E-1,1.014795549E1
2.090148396E0,1.067813993E0,1.009185982E1,3.567360640E-1,1.015446315E1
2.092149296E0,1.161187768E0,1.006552315E1,2.130839527E-1,1.013452111E1
2.094150196E0,1.216254473E0,1.001285076E1,1.580173075E-1,1.008768679E1
2.096150429E0,1.283292055E0,9.957783699E0,2.346317619E-1,1.004287542E1
2.098150462E0,1.036689281E0,1.003679276E1,3.447650373E-1,1.009607827E1
2.100150495E0,8.164227605E-1,1.019720459E1,4.381389022E-1,1.023921351E1
2.102149861E0,7.805097699E-1,1.020438671E1,4.908113480E-1,1.024595527E1
2.104150327E0,7.852981687E-1,1.003679276E1,5.219359994E-1,1.008098801E1
2.106150293E0,7.302315235E-1,9.972148895E0,5.386953950E-1,1.001335031E1
2.108150926E0,2.992752194E-1,1.005834103E1,6.895300746E-1,1.008638893E1
2.110150892E0,-1.149216816E-1,1.015171432E1,7.445967197E-1,1.017963334E1
2.112149992E0,-6.919242740E-1,1.009664822E1,1.393425345E0,1.021580631E1
2.114149058E0,-6.919242740E-1,1.004876423E1,1.393425345E0,1.016848346E1
2.116148124E0,-6.919242740E-1,1.004876423E1,1.393425345E0,1.016848346E1
2.118148090E0,-7.900865674E-1,1.008467674E1,1.211466074E0,1.018786493E1
2.120148090E0,-1.244984865E0,1.062576675E1,-7.182604820E-2,1.069869457E1
2.122148523E0,-1.074996591E0,1.088434029E1,-3.567360640E-1,1.094311390E1
2.124148556E0,7.015010715E-1,1.107587624E1,-4.333505034E-1,1.110652650E1
2.126148589E0,2.003946781E0,1.086279202E1,-4.596867263E-1,1.105564855E1
2.128149522E0,4.165910721E0,1.054675770E1,-2.801215947E-1,1.134316438E1
2.130149555E0,5.921160221E0,1.025945377E1,1.651999205E-1,1.184667975E1
2.132150455E0,6.574777126E0,9.701604843E0,2.537853718E-1,1.172233926E1
2.134150455E0,7.015310287E0,8.351274490E0,6.751648784E-1,1.092768098E1
2.136150488E0,6.656179905E0,7.441478252E0,1.216254473E0,1.005781310E1
2.138150488E0,6.344933987E0,7.242759228E0,1.345541358E0,9.722460083E0
2.140151154E0,4.604049683E0,7.508515835E0,1.173158884E0,8.885459205E0
2.142151820E0,4.103661537E0,7.633014202E0,1.086967587E0,8.734096539E0
2.144151820E0,3.713406801E0,7.654561996E0,9.504981041E-1,8.560674978E0
2.146152486E0,1.948880196E0,8.054393768E0,5.099649429E-1,8.302497048E0
2.148152486E0,-4.788403399E-3,8.957007408E0,-4.788403399E-3,8.957009968E0
2.150152452E0,-1.254561663E0,9.979331970E0,-3.591302633E-1,1.006429163E1
2.152151552E0,-3.696647406E0,1.123868179E1,-7.709329724E-1,1.185611691E1
2.154150652E0,-3.696647406E0,1.123868179E1,-7.709329724E-1,1.185611691E1
2.156151152E0,-4.268861771E0,1.123868179E1,-7.876923680E-1,1.204788814E1
2.158151118E0,-4.683058739E0,1.131529617E1,-8.068459630E-1,1.227265118E1
2.160151084E0,-5.820603371E0,1.115488529E1,-9.217676520E-1,1.261588463E1
2.162151450E0,-6.294655323E0,1.112376022E1,-8.714894056E-1,1.281094145E1
2.164151416E0,-6.754342079E0,1.109263611E1,-7.733271718E-1,1.301021705E1
2.166151416E0,-7.508515835E0,1.096813679E1,-5.003881454E-1,1.330143687E1
2.168151416E0,-8.092700958E0,1.079336071E1,-2.250549644E-1,1.349218640E1
2.170151449E0,-8.334515572E0,1.069040966E1,-8.379705995E-2,1.355566415E1
2.172152349E0,-8.619425774E0,1.041268253E1,1.987187415E-1,1.351879977E1
2.174153149E0,-8.772654533E0,1.011819553E1,4.357447028E-1,1.339877688E1
2.176154082E0,-8.767866135E0,9.969755173E0,5.291185975E-1,1.328726688E1
2.178154115E0,-8.624214172E0,9.689633369E0,6.416460276E-1,1.298760080E1
2.180154148E0,-8.365639687E0,9.486125946E0,6.248866320E-1,1.266337223E1
2.182154014E0,-8.212410927E0,9.423876762E0,5.817909837E-1,1.251365763E1
2.184154014E0,-7.850886822E0,9.378387451E0,4.309563041E-1,1.223831273E1
2.186153980E0,-7.474997044E0,9.395146370E0,2.753331959E-1,1.200917002E1
2.188153946E0,-7.156568050E0,9.428665161E0,1.915361285E-1,1.183861812E1
2.190153912E0,-7.008127689E0,9.505280495E0,4.070143029E-2,1.180956678E1
2.192153012E0,-6.038475990E0,9.653720856E0,-1.771709323E-1,1.138810380E1
2.194153012E0,-6.038475990E0,9.653720856E0,-1.771709323E-1,1.138810380E1
2.196152978E0,-6.038475990E0,9.653720856E0,-1.771709323E-1,1.138810380E1
2.198152978E0,-5.588366032E0,9.711181641E0,-2.394201756E-1,1.120688207E1
2.200153011E0,-5.121496677E0,9.749488831E0,-3.303998411E-1,1.101777767E1
2.202153044E0,-4.893748283E0,9.742305756E0,-3.734954596E-1,1.090874844E1
2.204153077E0,-4.508281708E0,9.706393242E0,-3.854664862E-1,1.070921370E1
2.206153110E0,-4.175487995E0,9.620202065E0,-3.495534360E-1,1.049310132E1
2.208153143E0,-4.041412354E0,9.574711800E0,-3.423708379E-1,1.039833341E1
2.210153209E0,-3.758896589E0,9.543587685E0,-3.998316824E-1,1.026495177E1
2.212154109E0,-3.373430252E0,9.426271439E0,-5.075707436E-1,1.002458243E1
2.214155009E0,-3.145981073E0,9.397541046E0,-6.224924326E-1,9.929676302E0
2.216154475E0,-2.461239338E0,9.359233856E0,-8.810662031E-1,9.717470613E0
2.218154475E0,-1.446097851E0,9.270648003E0,-1.048660398E0,9.441175881E0
2.220154475E0,-3.711012602E-1,9.091083527E0,-1.125274777E0,9.167974649E0
2.222154475E0,3.830722570E-1,8.889969826E0,-1.060631394E0,8.961207888E0
2.224154475E0,1.448492050E0,8.753500938E0,-1.082179189E0,8.938289528E0
2.226154475E0,1.970427990E0,8.959402084E0,-1.264138460E0,9.260211564E0
2.228154475E0,2.066195965E0,9.103054047E0,-1.338358760E0,9.430056358E0
2.230154441E0,2.468421936E0,9.220370293E0,-1.156399369E0,9.614863217E0
2.232153541E0,2.379836559E0,9.620202065E0,-1.199495077E0,9.982519634E0
2.234152774E0,2.312798738E0,9.699210167E0,-1.211466074E0,1.004446942E1
2.236152740E0,2.312798738E0,9.699210167E0,-1.211466074E0,1.004446942E1
2.238152706E0,2.367865562E0,9.593865395E0,-1.034295082E0,9.935733835E0
2.240152672E0,2.449268341E0,9.352050781E0,-6.009446383E-1,9.686119124E0
2.242152805E0,2.750937700E0,9.045593262E0,-2.873041928E-1,9.459014715E0
2.244152771E0,2.468421936E0,8.729558945E0,1.843535304E-1,9.073714369E0
2.246152771E0,1.738190413E0,8.825326920E0,2.633621991E-1,8.998725509E0
2.248152804E0,3.734954596E-1,9.155726433E0,1.364694983E-1,9.164357549E0
2.250152837E0,-1.388636976E-1,9.428665161E0,1.197100803E-2,9.429695284E0
2.252153737E0,-2.825157940E-1,9.591471672E0,3.591302410E-2,9.595698711E0
2.254154637E0,-1.149216816E-1,9.706393242E0,7.422025502E-2,9.707357282E0
2.256154670E0,1.364694983E-1,9.725546837E0,2.633621991E-1,9.730069108E0
2.258154703E0,6.416460276E-1,9.512462616E0,4.094084799E-1,9.542864871E0
2.260154703E0,1.074996591E0,9.294589996E0,4.596867263E-1,9.367835009E0
2.262154703E0,1.343147159E0,9.165303230E0,4.285621047E-1,9.273105902E0
2.264154669E0,1.561019540E0,8.988132477E0,3.782838583E-1,9.130520582E0
2.266154635E0,1.570596337E0,8.961795807E0,3.423708379E-1,9.104821510E0
2.268153935E0,1.685518026E0,8.861239433E0,2.657563984E-1,9.024032456E0
2.270153901E0,1.778891921E0,8.794201851E0,2.370259613E-1,8.975445614E0
2.272152967E0,2.032677174E0,8.784625053E0,1.101332754E-1,9.017402240E0
2.274152067E0,2.032677174E0,8.784625053E0,1.101332754E-1,9.017402240E0
2.276152067E0,2.102109194E0,8.782231331E0,7.661445439E-2,9.030632314E0
2.278152067E0,2.111685991E0,8.803778648E0,5.267243832E-2,9.053646260E0
2.280152067E0,1.898601890E0,8.980949402E0,1.149216816E-1,9.180160581E0
2.282151700E0,1.831564307E0,9.038411140E0,1.508347094E-1,9.223353775E0
2.284151700E0,1.771709204E0,9.105448723E0,1.867477298E-1,9.278093805E0
2.286151700E0,1.740584612E0,9.184456825E0,2.394201756E-1,9.351000160E0
2.288151700E0,1.731007814E0,9.225158691E0,2.896983922E-1,9.390626502E0
2.290151700E0,1.625662923E0,9.253889084E0,3.543418646E-1,9.402276388E0
2.292152566E0,1.553836942E0,9.265859604E0,3.615244627E-1,9.402194604E0
2.294153466E0,1.438915253E0,9.270648003E0,3.519476354E-1,9.388251095E0
2.296153499E0,1.376665950E0,9.220370293E0,3.256114423E-1,9.328261375E0
2.298153532E0,1.369483352E0,9.213187218E0,2.825157940E-1,9.318697255E0
2.300152898E0,1.312022567E0,9.208398819E0,2.035071403E-1,9.303624411E0
2.302152931E0,1.206677675E0,9.155726433E0,1.292868853E-1,9.235806008E0
2.304152964E0,1.161187768E0,9.148544312E0,9.816227108E-2,9.222464740E0
2.306152997E0,1.082179189E0,9.174880028E0,1.268926859E-1,9.239352633E0
2.308152997E0,9.433154464E-1,9.261071205E0,2.035071403E-1,9.311213619E0
2.310152063E0,8.882488012E-1,9.172486305E0,2.777273953E-1,9.219578269E0
2.312151163E0,4.429273009E-1,8.703222275E0,5.913678408E-1,8.734527948E0
2.314150263E0,4.429273009E-1,8.703222275E0,5.913678408E-1,8.734527948E0
2.316149463E0,4.429273009E-1,8.703222275E0,5.913678408E-1,8.734527948E0
2.318149429E0,7.493851185E-1,9.289801598E0,3.734954596E-1,9.327458959E0
2.320149395E0,9.337386489E-1,1.012298393E1,2.873042040E-2,1.016599710E1
2.322149361E0,8.188169599E-1,1.024030018E1,6.224924326E-2,1.027317302E1
2.324149361E0,7.398083210E-1,1.027142429E1,1.795651317E-1,1.029959791E1
2.326149394E0,4.716577232E-1,1.013256073E1,4.501099288E-1,1.015351402E1
2.328150094E0,4.118026793E-1,9.814131737E0,6.631938815E-1,9.845130234E0
2.330150127E0,3.351882398E-1,9.622595787E0,7.158663273E-1,9.655007273E0
2.332151060E0,3.040636182E-1,9.249100685E0,7.565677166E-1,9.284972422E0
2.334151960E0,1.675941236E-2,8.971372604E0,7.206547260E-1,9.000286135E0
2.336151993E0,-2.561795712E-1,9.000102997E0,7.230489254E-1,9.032733898E0
2.338152026E0,-7.972691655E-1,9.110237122E0,6.919242740E-1,9.171195000E0
2.340152059E0,-3.926490843E-1,8.739135742E0,3.519476354E-1,8.755029067E0
2.342152425E0,-7.900865376E-2,8.394370079E0,4.572925270E-1,8.407187868E0
2.344152425E0,-2.992752194E-1,7.932289600E0,5.219359994E-1,7.955073925E0
2.346152425E0,-8.643068075E-1,7.022492886E0,2.394201700E-3,7.075481490E0
2.348152425E0,-7.302315235E-1,6.866869926E0,-1.364694983E-1,6.906935977E0
2.350152425E0,-6.105214357E-1,7.096713066E0,-2.489969730E-1,7.127276637E0
2.352151558E0,-1.963245422E-1,8.147768021E0,2.657563984E-1,8.154464636E0
2.354150658E0,-1.963245422E-1,8.147768021E0,2.657563984E-1,8.154464636E0
2.356150624E0,-1.963245422E-1,8.147768021E0,2.657563984E-1,8.154464636E0
2.358150590E0,-1.089361787E0,8.787019730E0,1.180341482E0,8.932616126E0
2.360151223E0,-2.260126352E0,1.017565632E1,2.087743998E0,1.063065509E1
2.362151023E0,-2.317587137E0,1.069759274E1,2.353500366E0,1.119592178E1
2.364150989E0,-1.460463047E0,1.048450851E1,1.915361404E0,1.075762429E1
2.366150955E0,-2.825157940E-1,8.978555679E0,9.289502501E-1,9.030903932E0
2.368150921E0,1.628057212E-1,7.901165009E0,4.118026793E-1,7.913564029E0
2.370151821E0,1.891419291E-1,5.459079266E0,-7.541735172E-1,5.514172539E0
2.372152721E0,-1.197100878E-1,4.465186119E0,-1.177947283E0,4.619499690E0
2.374153621E0,-6.009446383E-1,5.135861874E0,-7.996633649E-1,5.232367833E0
2.376154421E0,-1.443703651E0,6.821380138E0,2.873042040E-2,6.972541335E0
2.378154454E0,-2.123656988E0,8.305785179E0,6.344634295E-1,8.596425437E0
2.380154487E0,-2.920926094E0,9.325715065E0,1.082179189E0,9.832186050E0
2.382154520E0,-3.292027235E0,9.694421768E0,1.197100878E0,1.030787598E1
2.384154553E0,-3.945644379E0,1.019720459E1,1.027112484E0,1.098207863E1
2.386154553E0,-4.695029736E0,1.037198067E1,8.571242094E-1,1.141735298E1
2.388154519E0,-5.083189487E0,1.057309437E1,3.734954596E-1,1.173748860E1
2.390154485E0,-5.839757442E0,1.103517532E1,3.016694188E-1,1.248874957E1
2.392153585E0,-6.919542313E0,1.205031681E1,7.206547260E-1,1.391436467E1
2.394152685E0,-7.003339291E0,1.236635113E1,7.517793179E-1,1.423160474E1
2.396151751E0,-7.003339291E0,1.236635113E1,7.517793179E-1,1.423160474E1
2.398151717E0,-7.278672218E0,1.272787571E1,6.967126727E-1,1.467866812E1
2.400151683E0,-7.532457829E0,1.301757431E1,4.261679053E-1,1.504582271E1
2.402151383E0,-7.740753174E0,1.315883160E1,2.298433632E-1,1.526849490E1
2.404151416E0,-7.982567787E0,1.335276222E1,-2.753331959E-1,1.555935268E1
2.406151449E0,-7.975385189E0,1.342937660E1,-4.979939461E-1,1.562699340E1
2.408151482E0,-8.468590736E0,1.361373043E1,-7.661445141E-1,1.605109537E1
2.410151115E0,-8.911518097E0,1.392497635E1,-9.959878922E-1,1.656237039E1
2.413675075E0,-8.935460091E0,1.405186939E1,-1.070208192E0,1.668660619E1
2.415675975E0,-8.609848976E0,1.396328354E1,-1.199495077E0,1.644814807E1
2.417676008E0,-8.351274490E0,1.350838566E1,-1.465251446E0,1.594889433E1
2.419676041E0,-8.121431351E0,1.321150398E1,-1.707065821E0,1.560178062E1
2.421676041E0,-7.618649006E0,1.237353325E1,-2.267308950E0,1.470676129E1
2.423676041E0,-7.465420246E0,1.214129639E1,-2.410961151E0,1.445532120E1
2.425676041E0,-6.998550892E0,1.182047272E1,-2.331952572E0,1.393345946E1
2.427676041E0,-6.747159481E0,1.169358063E1,-2.070984364E0,1.365843934E1
2.429676041E0,-5.976226807E0,1.159062958E1,-1.561019540E0,1.313372616E1
2.431676041E0,-6.601113319E0,1.125304699E1,-3.687070608E-1,1.305150215E1
2.433675141E0,-7.714416981E0,1.094419479E1,4.405331016E-1,1.339707798E1
2.435674241E0,-7.714416981E0,1.094419479E1,4.405331016E-1,1.339707798E1
2.437674807E0,-7.587524414E0,1.087476349E1,2.489969730E-1,1.326246610E1
2.439674773E0,-7.271489620E0,1.083406162E1,-1.149216816E-1,1.304855009E1
2.441674739E0,-6.376058578E0,1.062097836E1,-9.145850539E-1,1.242158484E1
2.443674705E0,-6.131849766E0,1.039592266E1,-9.145850539E-1,1.210418338E1
2.445674671E0,-5.669768810E0,1.038155746E1,-9.959878922E-1,1.187076264E1
2.447674637E0,-4.204218388E0,1.025227070E1,-1.122880578E0,1.113756560E1
2.449674637E0,-3.342305660E0,9.912294388E0,-1.120486379E0,1.052045992E1
2.451674670E0,-2.621650934E0,9.696816444E0,-9.313444495E-1,1.008804764E1
2.453675570E0,-2.039859772E0,9.565135002E0,-8.236053586E-1,9.814843926E0
2.455676470E0,-8.571242094E-1,9.019257545E0,-9.193734527E-1,9.106421697E0
2.457677603E0,2.346317619E-1,8.415918350E0,-7.278373241E-1,8.450590566E0
2.459677636E0,7.900865674E-1,8.095095634E0,-5.793967843E-1,8.154171371E0
2.461677669E0,2.576161146E0,5.509357452E0,-2.183511972E0,6.461992752E0
2.463678002E0,4.321534157E0,1.821987510E0,-1.314416766E0,4.870624949E0
2.465678002E0,3.679888010E0,1.903390408E0,1.651999205E-1,4.146294951E0
2.467677968E0,1.544260144E0,4.012681961E0,1.482010841E0,4.547824980E0
2.469677334E0,6.895300746E-1,6.804620743E0,8.978256583E-1,6.898145120E0
2.471677700E0,6.153098345E-1,8.121431351E0,4.525041282E-1,8.157267518E0
2.473676800E0,1.668758631E0,1.344853020E1,-1.103726983E0,1.359654122E1
2.475675900E0,1.668758631E0,1.344853020E1,-1.103726983E0,1.359654122E1
2.477675866E0,1.668758631E0,1.344853020E1,-1.103726983E0,1.359654122E1
2.479675832E0,3.426102638E0,1.444691277E1,3.914519787E0,1.535496444E1
2.481675832E0,3.514688015E0,1.278773022E1,4.675876141E0,1.406210843E1
2.483675865E0,3.514688015E0,1.278773022E1,4.675876141E0,1.406210843E1
2.485675898E0,2.482787132E0,1.115488529E1,3.588908434E0,1.197814516E1
2.487675931E0,1.443703651E0,9.569923401E0,2.382230759E0,9.967082699E0
2.489675964E0,1.079784989E0,8.842085838E0,9.840168953E-1,8.961958873E0
2.491675997E0,1.101332784E0,7.604283810E0,4.860229492E-1,7.698979443E0
2.493676230E0,1.211466074E0,6.660968304E0,-8.140286058E-2,6.770729297E0
2.495677130E0,1.575384736E0,6.045658588E0,-2.059013397E-1,6.250937545E0
2.497676563E0,1.843535304E0,5.866093636E0,-1.149216816E-1,6.150031215E0
2.499676929E0,2.473210335E0,5.755959988E0,6.943184882E-2,6.265194771E0
2.501676529E0,2.817975283E0,5.964255810E0,9.816227108E-2,6.597193941E0
2.503675629E0,2.758120298E0,6.184522152E0,1.197100803E-2,6.771682592E0
2.505674962E0,2.911349297E0,6.778284073E0,-5.267243832E-2,7.377253153E0
2.507674628E0,3.167528868E0,7.532457829E0,-2.154781520E-1,8.174202768E0
2.509674628E0,3.208230257E0,7.932289600E0,-3.399766386E-1,8.563267122E0
2.511675061E0,3.390189648E0,8.679280281E0,-5.746083856E-1,9.335602115E0
2.513674161E0,3.842693806E0,1.009664822E1,-9.265560508E-1,1.084283667E1
2.515673261E0,3.842693806E0,1.009664822E1,-9.265560508E-1,1.084283667E1
2.517672361E0,3.842693806E0,1.009664822E1,-9.265560508E-1,1.084283667E1
2.519672327E0,2.829946518E0,1.024269390E1,-1.029506683E0,1.067620062E1
2.521672293E0,2.262520552E0,1.017086792E1,-1.027112484E0,1.046998154E1
2.523672259E0,2.245761156E0,1.003918743E1,-1.024718285E0,1.033821914E1
2.525671392E0,2.729389906E0,9.699210167E0,-9.169792533E-1,1.011756384E1
2.527671392E0,3.351882458E0,9.569923401E0,-8.547300100E-1,1.017590848E1
2.529672025E0,3.567360640E0,9.534010887E0,-7.948749661E-1,1.021054610E1
2.531672058E0,2.760514498E0,9.045593262E0,-1.101332784E0,9.521351356E0
2.533672958E0,3.016694188E-1,7.343316078E0,-1.824381709E0,7.572559943E0
2.535673358E0,-8.451532125E-1,6.620266914E0,-2.051830769E0,6.982279533E0
2.537673391E0,-1.101332784E0,6.651391506E0,-1.900996208E0,7.004836147E0
2.539673424E0,-8.547300100E-1,8.040028572E0,-1.326387763E0,8.193407553E0
2.541673457E0,-4.836287498E-1,9.648932457E0,-8.020575643E-1,9.694281338E0
2.543673457E0,-2.082955539E-1,1.029536629E1,-5.770025849E-1,1.031362623E1
2.545673423E0,3.974374831E-1,1.097053146E1,-3.447650373E-1,1.098314072E1
2.547673389E0,7.182605267E-1,1.115967369E1,-3.016694188E-1,1.118683242E1
2.549673355E0,1.005564690E0,1.135360336E1,-4.141969085E-1,1.140557008E1
2.551673321E0,1.089361787E0,1.142542934E1,-7.493851185E-1,1.150168348E1
2.553673087E0,4.070142806E-1,1.163611984E1,-2.025494576E0,1.181810365E1
2.555672187E0,4.070142806E-1,1.163611984E1,-2.025494576E0,1.181810365E1
2.557672153E0,-4.070143029E-2,1.171991634E1,-1.881842494E0,1.187010644E1
2.559671119E0,-7.589619160E-1,1.171512794E1,-1.479616642E0,1.183256149E1
2.561671552E0,-1.300051570E0,1.158823586E1,-4.141969085E-1,1.166828622E1
2.563672185E0,-1.218648672E0,1.156668758E1,2.561795712E-1,1.163352888E1
2.565672885E0,-1.340752959E0,1.144697762E1,1.417367458E0,1.161205604E1
2.567672585E0,-1.637633920E0,1.130571938E1,1.786074519E0,1.156249098E1
2.569672818E0,-2.121262789E0,1.082209110E1,2.319981337E0,1.126941547E1
2.571671718E0,-2.415749550E0,1.024748230E1,2.346317768E0,1.078665594E1
2.573672618E0,-2.688688517E0,9.938630104E0,2.353500366E0,1.056145720E1
2.575673518E0,-3.102885485E0,9.443030357E0,2.547430515E0,1.026100009E1
2.577674184E0,-3.260902643E0,9.167697906E0,2.638410330E0,1.008173497E1
2.579674184E0,-3.308786631E0,9.091083527E0,2.549824715E0,1.000487255E1
2.581674184E0,-3.428496838E0,9.198822021E0,1.912967205E0,1.000161790E1
2.583674184E0,-3.478775024E0,9.304166794E0,1.663970232E0,1.007165291E1
2.585675017E0,-3.426102638E0,9.469367027E0,1.426944256E0,1.017070603E1
2.587675017E0,-3.359065056E0,9.881169319E0,1.012747288E0,1.048553681E1
2.589674983E0,-3.150769472E0,1.020438671E1,6.895300746E-1,1.070197683E1
2.591674949E0,-2.523488522E0,1.048690319E1,5.650315881E-1,1.080103669E1
2.593674049E0,7.996633649E-1,1.080293751E1,1.022324085E0,1.088062805E1
2.595673649E0,7.996633649E-1,1.080293751E1,1.022324085E0,1.088062805E1
2.597673615E0,5.286696434E0,1.125065327E1,1.884236693E0,1.257285592E1
2.599673581E0,6.268319130E0,1.099926186E1,2.080561161E0,1.282982154E1
2.601673547E0,-4.560954094E0,9.380781174E0,-4.261679053E-1,1.043949121E1
2.603673513E0,-4.596867085E0,9.294589996E0,-7.254431248E-1,1.039455905E1
2.605673513E0,-4.390965939E0,9.330503464E0,-8.499416113E-1,1.034704197E1
2.607673546E0,-4.474762917E0,9.488520622E0,-7.924807668E-1,1.052062510E1
2.609673579E0,-2.025494576E0,9.871592522E0,-4.788403511E-1,1.008862009E1
2.611673612E0,8.020575643E-1,1.021635818E1,1.268926859E-1,1.024857906E1
2.613674512E0,2.537853718E0,1.102799225E1,4.357447028E-1,1.132462750E1
2.615675412E0,1.146613121E1,1.172231102E1,2.336740971E0,1.656336617E1
2.617675445E0,9.047987938E0,1.123149967E1,2.123656988E0,1.457815453E1
2.619676145E0,-6.129156351E-1,9.871592522E0,2.968810201E-1,9.895056484E0
2.621676145E0,-7.367258072E0,8.655338287E0,-1.022324085E0,1.141212158E1
2.623676411E0,-5.700893402E0,9.138967514E0,-5.650315881E-1,1.078611021E1
2.625676377E0,-1.292868853E-1,9.847650528E0,-1.125274822E-1,9.849142016E0
2.627677010E0,8.619425774E0,1.054915237E1,1.946485996E0,1.376110185E1
2.629676776E0,1.697489023E0,9.790189743E0,1.333570361E0,1.002535257E1
2.631677409E0,-3.236960649E0,9.043199539E0,7.685387731E-1,9.635767951E0
2.633676509E0,2.190694571E0,1.071435165E1,1.235408068E0,1.100557618E1
2.635675609E0,2.190694571E0,1.071435165E1,1.235408068E0,1.100557618E1
2.637675609E0,2.190694571E0,1.071435165E1,1.235408068E0,1.100557618E1
2.639675642E0,3.040636063E0,1.070238113E1,1.388636947E0,1.121225857E1
2.641675675E0,-1.261744261E0,9.866804123E0,3.591302410E-2,9.947216290E0
2.643675708E0,-1.261744261E0,9.555558205E0,3.591302410E-2,9.638567369E0
2.645675741E0,-5.664980412E0,9.167697906E0,2.849099934E-1,1.078053160E1
2.647675774E0,-5.506963253E0,9.495702744E0,1.723825186E-1,1.097837559E1
2.649675807E0,-4.209006786E0,9.797372818E0,3.830722719E-2,1.066328841E1
2.651675840E0,-1.300051570E0,1.038395214E1,-3.830722719E-2,1.046508784E1
2.653676740E0,4.716577232E-1,1.050366211E1,8.140286058E-2,1.051456158E1
2.655677173E0,1.058237195E0,1.033606815E1,3.064578176E-1,1.039461819E1
2.657677173E0,1.410184860E0,1.030015469E1,4.213795066E-1,1.040477624E1
2.659677173E0,1.951274395E0,1.030015469E1,6.751648784E-1,1.050507049E1
2.661677173E0,5.341763496E0,1.057548809E1,1.022324085E0,1.189203650E1
2.663677173E0,7.709628582E0,1.052999878E1,1.376665950E0,1.312305057E1
2.665677173E0,1.987187386E0,9.926659584E0,1.130063176E0,1.018648747E1
2.667677139E0,-2.035071373E0,9.605836868E0,7.422025502E-2,9.819324115E0
2.669676439E0,-2.173935175E0,9.725546837E0,-2.992752194E-1,9.970046192E0
2.671676405E0,-6.344634295E-1,1.025466537E1,-4.261679053E-1,1.028310872E1
2.673675505E0,1.975216389E0,1.019720459E1,3.112462163E-1,1.039140681E1
2.675674605E0,1.975216389E0,1.019720459E1,3.112462163E-1,1.039140681E1
2.677674638E0,1.975216389E0,1.019720459E1,3.112462163E-1,1.039140681E1
2.679674604E0,2.114080191E0,9.957783699E0,6.081272364E-1,1.019787282E1
2.681674570E0,1.711854219E0,9.646537781E0,5.937620401E-1,9.815227424E0
2.683674570E0,1.422155857E0,9.486125946E0,5.195417404E-1,9.606197810E0
2.685674570E0,6.464344859E-1,9.246706009E0,2.849099934E-1,9.273652100E0
2.687674603E0,-3.591302410E-2,9.155726433E0,-2.633621916E-2,9.155834744E0
2.689674636E0,-2.801215947E-1,9.174880028E0,-2.825157940E-1,9.183501881E0
2.691674669E0,-5.147533417E-1,9.335291862E0,-7.493851185E-1,9.379457512E0
2.693675569E0,-6.536170840E-1,9.617807388E0,-8.978256583E-1,9.681710859E0
2.695676469E0,-9.026140571E-1,9.771036148E0,-9.265560508E-1,9.856285591E0
2.697676502E0,-1.024718285E0,1.004158115E1,-9.911994934E-1,1.014228160E1
2.699676502E0,-9.792284966E-1,1.017565632E1,-1.127668977E0,1.028467342E1
2.701676468E0,-1.043871999E0,1.024508858E1,-1.189918280E0,1.036664913E1
2.703676434E0,-9.959878922E-1,1.024508858E1,-1.185129881E0,1.036138816E1
2.705676400E0,-7.900865674E-1,1.015410900E1,-1.041477680E0,1.023791200E1
2.707676366E0,4.309562966E-2,1.002003384E1,-9.074024558E-1,1.006112889E1
2.709676332E0,9.206005096E0,9.086295128E0,8.571242094E-1,1.296325387E1
2.711676298E0,2.037465572E0,9.668086052E0,-2.729389966E-1,9.884212137E0
2.713675398E0,-5.890035629E0,9.419088364E0,-3.045424461E0,1.151895635E1
2.715674964E0,-5.890035629E0,9.419088364E0,-3.045424461E0,1.151895635E1
2.717674997E0,-4.577713490E0,9.201216698E0,-2.987963676E0,1.070260606E1
2.719675030E0,2.363077164E0,9.196428299E0,-1.582567334E0,9.626159489E0
2.721675063E0,3.380612850E0,9.308955193E0,7.326257229E-1,9.930857489E0
2.723675096E0,-9.864110947E-1,9.775824547E0,-8.379705995E-2,9.825821816E0
2.725675129E0,-4.469974518E0,9.653720856E0,-8.283938169E-1,1.067057800E1
2.727674862E0,-5.973832607E0,9.478943825E0,-1.027112484E0,1.125131157E1
2.729675562E0,-7.024887085E0,8.913911819E0,-1.819593310E0,1.149424997E1
2.731675595E0,-5.732017994E0,8.674491882E0,-1.534683347E0,1.050990450E1
2.733676561E0,-4.587290287E0,8.755894661E0,-1.072602391E0,9.942806414E0
2.735677427E0,-2.126051188E0,9.201216698E0,-1.460463107E-1,9.444776964E0
2.737677360E0,-7.948749661E-1,9.601048470E0,1.604115069E-1,9.635231693E0
2.739677360E0,-5.961562395E-1,9.648932457E0,1.556231081E-1,9.668584093E0
2.741677360E0,2.063801765E0,9.416694641E0,-5.506663769E-2,9.640355182E0
2.743677360E0,6.373664379E0,9.361627579E0,7.541735172E-1,1.135043815E1
2.745677360E0,7.206846237E0,9.500492096E0,1.379060149E0,1.200415718E1
2.747677326E0,-2.135627985E0,9.356839180E0,-7.589619160E-1,9.627427981E0
2.749677292E0,-5.322609425E0,7.994538784E0,-1.821987510E0,9.775605349E0
2.751677258E0,-3.907337189E0,7.779060364E0,-1.359906554E0,8.810812101E0
2.753676358E0,-3.663128614E-1,8.746317863E0,2.513911724E-1,8.757594350E0
2.755675458E0,-3.663128614E-1,8.746317863E0,2.513911724E-1,8.757594350E0
2.757675424E0,-3.663128614E-1,8.997709274E0,4.572925270E-1,9.016766258E0
2.759675390E0,-7.685387731E-1,9.153332710E0,5.051765442E-1,9.199421443E0
2.761675390E0,-1.235408068E0,9.198822021E0,5.434837937E-1,9.297307907E0
2.763675390E0,-9.840168953E-1,9.191639900E0,5.889736414E-1,9.262905767E0
2.765675423E0,-6.655880809E-1,9.196428299E0,6.607996821E-1,9.244130958E0
2.767675456E0,-2.394201756E-1,9.198822021E0,6.775590777E-1,9.226848590E0
2.769675489E0,-6.224924326E-2,9.174880028E0,6.655880809E-1,9.199201378E0
2.771675522E0,2.873042040E-2,9.162909508E0,6.799532771E-1,9.188148483E0
2.773675888E0,1.891419291E-1,9.162909508E0,6.751648784E-1,9.189697108E0
2.775676788E0,5.363011956E-1,9.177274704E0,5.363011956E-1,9.208561719E0
2.777676788E0,8.140285611E-1,9.232340813E0,3.639186621E-1,9.275300328E0
2.779676754E0,7.422025502E-2,9.383175850E0,7.613561153E-1,9.414306178E0
2.781676720E0,-4.094084799E-1,9.543587685E0,1.211466074E0,9.628880062E0
2.783676686E0,-3.591302633E-1,9.610625267E0,1.259350061E0,9.699435816E0
2.785676652E0,-3.040636182E-1,9.634567261E0,1.165976286E0,9.709626238E0
2.787676918E0,-8.140286058E-2,9.529222488E0,9.313444495E-1,9.574973114E0
2.789676884E0,7.661445439E-2,9.495702744E0,8.068459630E-1,9.530227740E0
2.791676850E0,4.548983276E-2,9.507674217E0,7.469909191E-1,9.537082037E0
2.793675883E0,8.648156166E0,1.044620132E1,1.091755986E0,1.360535403E1
2.795675049E0,8.648156166E0,1.044620132E1,1.091755986E0,1.360535403E1
2.797675082E0,8.648156166E0,1.044620132E1,1.091755986E0,1.360535403E1
2.799675115E0,1.134851575E0,9.572318077E0,-3.447650373E-1,9.645518358E0
2.801675148E0,-2.765302896E0,8.557176590E0,-5.267243981E-1,9.008307826E0
2.803675181E0,-2.774879694E0,8.698433876E0,-4.788403399E-3,9.130319389E0
2.805675214E0,-8.212111592E-1,9.634567261E0,7.613561153E-1,9.699429736E0
2.807675247E0,1.024718285E0,1.036479855E1,4.094084799E-1,1.042337334E1
2.809675280E0,9.672574997E-1,1.050366211E1,4.213795066E-1,1.055651768E1
2.811675280E0,2.394201700E-3,1.049169159E1,2.968810201E-1,1.049589141E1
2.813676146E0,1.221042871E-1,1.029057789E1,-1.316810995E-1,1.029214471E1
2.815677012E0,8.786720037E-1,1.031451988E1,-8.619125932E-2,1.035223714E1
2.817677012E0,1.625662923E0,1.032649136E1,1.556231081E-1,1.045482770E1
2.819677012E0,1.088434029E1,1.073589993E1,8.092401624E-1,1.530958132E1
2.821677012E0,1.443733597E1,1.023790550E1,1.628057122E0,1.777363072E1
2.823677012E0,8.188468933E0,9.675268173E0,1.443703651E0,1.275719867E1
2.825677078E0,-4.848258495E0,8.660126686E0,2.513911724E-1,9.928071423E0
2.827677044E0,-5.578789234E0,9.557952881E0,2.729389966E-1,1.107031383E1
2.829677010E0,2.614468336E0,1.082687950E1,5.267243981E-1,1.115052479E1
2.831676976E0,1.417876148E1,1.141345882E1,2.147598982E0,1.832802501E1
2.833676609E0,-3.066972494E0,9.306561470E0,3.806780577E-1,9.806289944E0
2.835675709E0,3.603273630E0,1.028339577E1,1.620874524E0,1.101630807E1
2.837675675E0,3.603273630E0,1.028339577E1,1.620874524E0,1.101630807E1
2.839675675E0,4.103661537E0,1.096095467E1,2.231395960E0,1.191476786E1
2.841675675E0,-5.329792023E0,9.962572098E0,1.144428372E0,1.135646257E1
2.843675708E0,-7.915530205E0,9.864410400E0,2.873041928E-1,1.265087960E1
2.845675741E0,4.443638325E0,1.157626438E1,1.094150186E0,1.244801122E1
2.847675774E0,6.438307762E0,1.187075138E1,1.673547029E0,1.360761937E1
2.849675807E0,-2.408566952E0,1.066886234E1,7.565677166E-1,1.096349457E1
2.851675840E0,-3.952826977E0,1.024030018E1,-2.920926213E-1,1.098061505E1
2.853676740E0,3.833117008E0,1.137515163E1,9.816226959E-1,1.204368896E1
2.855677606E0,2.497152328E0,1.126023006E1,9.074024558E-1,1.156943949E1
2.857677572E0,-3.112462282E0,9.890746117E0,1.651999205E-1,1.037022522E1
2.859677538E0,-9.074024558E-1,9.991303444E0,4.261679053E-1,1.004147115E1
2.861677504E0,-4.901230335E0,9.550769806E0,1.053448766E-1,1.073547205E1
2.863677470E0,-8.439860344E0,8.966584206E0,-1.221042871E-1,1.231445429E1
2.865677436E0,-1.153316879E1,8.765471458E0,-3.399766386E-1,1.449010201E1
2.867677402E0,-6.160580158E0,9.569923401E0,2.059013397E-1,1.138325863E1
2.869676702E0,8.379706144E-1,1.020438671E1,1.498770237E0,1.034785075E1
2.871676702E0,-2.571372509E0,9.457395554E0,6.200982332E-1,9.820326321E0
2.873675835E0,-6.222829342E0,1.003200436E1,4.788403399E-3,1.180528438E1
2.875674968E0,-6.222829342E0,1.003200436E1,4.788403399E-3,1.180528438E1
2.877674068E0,-1.810016513E0,1.100883865E1,4.668693244E-1,1.116640745E1
2.879674068E0,2.015917778E0,1.143740082E1,1.048660398E0,1.166094981E1
2.881674068E0,-1.857900500E0,1.041028786E1,2.274491638E-1,1.057722178E1
2.883674068E0,-2.968810081E0,1.004636955E1,-2.513911724E-1,1.047886311E1
2.885673968E0,-5.978621006E0,9.414299965E0,-9.935936928E-1,1.119643610E1
2.887673968E0,-6.675333500E0,9.428665161E0,-1.094150186E0,1.160417893E1
2.889674001E0,-4.992209911E0,9.893140793E0,-1.197100878E0,1.114582635E1
2.891674034E0,-2.118868589E0,1.029536629E1,-1.321599364E0,1.059390372E1
2.893674534E0,-1.146822572E0,1.033127975E1,-1.309628367E0,1.047691127E1
2.895675434E0,5.854122639E0,1.107348251E1,2.513911724E-1,1.252820675E1
2.897675467E0,5.490203857E0,1.038634586E1,1.604115069E-1,1.174922341E1
2.899675500E0,2.296039343E0,9.653720856E0,-2.154781520E-1,9.925349055E0
2.901675533E0,-4.800374508E0,8.870816231E0,-1.108515382E0,1.014710709E1
2.903675533E0,-5.162198067E0,9.064746857E0,-1.393425345E0,1.052423673E1
2.905675499E0,-4.429273129E0,9.510068893E0,-1.515529633E0,1.059984438E1
2.907675465E0,-2.130839586E0,1.035282707E1,-1.594538331E0,1.068943676E1
2.909675431E0,-4.908113480E-1,1.064013195E1,-1.448492050E0,1.074948524E1
2.911675397E0,-2.346317619E-1,1.051802731E1,-1.072602391E0,1.057517973E1
2.913674497E0,1.285686255E0,1.059703636E1,5.889736414E-1,1.069098025E1
2.915673597E0,1.285686255E0,1.059703636E1,5.889736414E-1,1.069098025E1
2.917673597E0,2.719813108E0,1.059703636E1,8.930372596E-1,1.097688838E1
2.919673597E0,2.358288765E0,1.044620132E1,3.902548850E-1,1.071620021E1
2.921673630E0,-2.056619167E0,9.486125946E0,-7.254431248E-1,9.733577738E0
2.923673663E0,-2.975992680E0,9.390357971E0,-9.840168953E-1,9.899679010E0
2.925673796E0,-3.174711466E0,9.443030357E0,-1.074996591E0,1.002024116E1
2.927673429E0,-2.291250944E0,9.823708534E0,-1.024718285E0,1.013928636E1
2.929674129E0,-1.482010841E0,1.011819553E1,-7.637503147E-1,1.025463561E1
2.931674162E0,-1.261744261E0,1.022832870E1,-6.488286853E-1,1.032626192E1
2.933674995E0,-1.209071875E0,1.027860737E1,-3.854664862E-1,1.035665045E1
2.935675895E0,-1.273715258E0,1.025945377E1,-1.316810995E-1,1.033905616E1
2.937676795E0,-1.268926859E0,1.024030018E1,-1.197100803E-2,1.031862716E1
2.939676395E0,-1.134851575E0,1.019959831E1,1.795651317E-1,1.026410919E1
2.941676395E0,-9.696516991E-1,1.010383034E1,2.274491638E-1,1.015279986E1
2.943676395E0,-8.858546019E-1,1.003918743E1,2.370259613E-1,1.008098229E1
2.945676395E0,-7.829039693E-1,9.924264908E0,2.466027737E-1,9.958151712E0
2.947676395E0,-7.254431248E-1,9.835680008E0,2.202665508E-1,9.864856122E0
2.949676361E0,-6.967126727E-1,9.794978142E0,1.651999205E-1,9.821114823E0
2.951676327E0,-6.751648784E-1,9.754277229E0,1.292868853E-1,9.778470585E0
2.953675827E0,-7.685387731E-1,9.727940559E0,-3.351882473E-2,9.758309428E0
2.955674927E0,-7.685387731E-1,9.727940559E0,-3.351882473E-2,9.758309428E0
2.957674893E0,-7.685387731E-1,9.727940559E0,-3.351882473E-2,9.758309428E0
2.959674859E0,-9.337386489E-1,9.692028046E0,-8.619125932E-2,9.737284243E0
2.961674825E0,-1.139639974E0,9.639355659E0,-4.788403213E-2,9.706608557E0
2.963674791E0,-1.187524080E0,9.613018990E0,-1.915361360E-2,9.686109353E0
2.965674791E0,-1.199495077E0,9.555558205E0,2.633621916E-2,9.630585374E0
2.967674824E0,-1.156399369E0,9.529222488E0,4.788403213E-2,9.599251722E0
2.969674857E0,-1.139639974E0,9.488520622E0,4.788403213E-2,9.556835028E0
2.971674890E0,-1.240196466E0,9.162909508E0,-1.149216816E-1,9.247172807E0
2.973675790E0,-1.601720929E0,9.191639900E0,3.136404157E-1,9.335423092E0
2.975676690E0,-1.821987510E0,9.265859604E0,5.123591423E-1,9.457182698E0
2.977676723E0,-1.845929503E0,9.380781174E0,7.924807668E-1,9.593463239E0
2.979676756E0,-1.640028119E0,9.368810654E0,9.576807022E-1,9.559364917E0
2.981676756E0,-1.438915253E0,9.261071205E0,9.576807022E-1,9.420990887E0
2.983676722E0,-1.233013868E0,9.227552414E0,9.768342972E-1,9.360675830E0
2.985676588E0,-9.409212470E-1,9.146149635E0,1.017535686E0,9.250554838E0
2.987676954E0,-1.074996591E0,9.019257545E0,1.067813993E0,9.145646563E0
2.989676920E0,-9.935936928E-1,9.021651268E0,1.024718285E0,9.133863782E0
2.991676886E0,-6.919242740E-1,9.117419243E0,8.068459630E-1,9.179166262E0
2.993676052E0,-8.786720037E-1,9.196428299E0,2.489969730E-1,9.241664214E0
2.995675152E0,-1.132457376E0,9.024045944E0,-2.992752194E-1,9.099748929E0
2.997675152E0,-1.132457376E0,9.024045944E0,-2.992752194E-1,9.099748929E0
2.999675585E0,-1.285686255E0,9.280224800E0,-4.644751251E-1,9.380367723E0
3.001675618E0,-9.385270476E-1,1.006312943E1,3.519476354E-1,1.011292608E1
3.003675651E0,-6.440402865E-1,1.043662453E1,5.674257874E-1,1.047186189E1
3.005675684E0,-4.908113480E-1,1.102799225E1,7.422025204E-1,1.106383177E1
3.007675717E0,-6.248866320E-1,1.127220058E1,7.230489254E-1,1.131263847E1
3.009675750E0,-1.185129881E0,1.167203236E1,5.554547906E-1,1.174518634E1
3.011675783E0,-1.802833915E0,1.200482655E1,3.184288144E-1,1.214361838E1
3.013677449E0,-1.924938202E0,1.210777760E1,-5.506663769E-2,1.225996320E1
3.015678315E0,-1.867477298E0,1.210059452E1,-3.040636182E-1,1.224762483E1
3.017678315E0,-1.848323703E0,1.162654305E1,-7.374141216E-1,1.179561712E1
3.019678315E0,-2.205059767E0,1.041747093E1,-6.248866320E-1,1.066660548E1
3.021678315E0,-2.851494312E0,8.439860344E0,3.902548850E-1,8.917093771E0
3.023678315E0,-2.284068346E0,7.965808392E0,1.824381709E0,8.485248385E0
3.025678315E0,-3.854664862E-1,7.340921879E0,2.578555346E0,7.790164704E0
3.027678281E0,-9.337386489E-2,7.156568050E0,2.334346771E0,7.528237495E0
3.029678247E0,-1.197100878E-1,6.960243702E0,1.496376038E0,7.120285397E0
3.031678213E0,-5.865794420E-1,6.297049522E0,6.248866320E-1,6.355107508E0
3.033677313E0,2.035071403E-1,6.943484306E0,3.926490843E-1,6.957554367E0
3.035676413E0,2.035071403E-1,6.943484306E0,3.926490843E-1,6.957554367E0
3.037676379E0,4.764461517E-1,7.374440670E0,4.477157295E-1,7.403365823E0
3.039676345E0,7.158663273E-1,7.824550629E0,5.482721925E-1,7.876335413E0
3.041676811E0,1.110909581E0,9.040804863E0,7.038952708E-1,9.135958692E0
3.043676411E0,1.204283476E0,9.352050781E0,7.110779285E-1,9.456044856E0
3.045676444E0,1.273715258E0,9.601048470E0,6.607996821E-1,9.707684507E0
3.047676477E0,1.268926859E0,9.936236382E0,4.884171486E-1,1.002883443E1
3.049676510E0,1.211466074E0,1.005834103E1,2.394201756E-1,1.013386384E1
3.051676543E0,1.065419793E0,1.002721596E1,7.422025502E-2,1.008393216E1
3.053677309E0,9.959878922E-1,9.984120369E0,3.351882473E-2,1.003373185E1
3.055678209E0,8.475474119E-1,9.862015724E0,-2.633621916E-2,9.898403122E0
3.057678242E0,6.655880809E-1,9.759065628E0,-1.436521020E-2,9.781747072E0
3.059678242E0,5.626373887E-1,9.711181641E0,-9.576806799E-3,9.727471480E0
3.061678208E0,1.604115069E-1,9.593865395E0,6.224924326E-2,9.595408278E0
3.063678174E0,4.788403399E-3,9.589076996E0,1.316810995E-1,9.589982298E0
3.065678140E0,-1.508347094E-1,9.598653793E0,2.035071403E-1,9.601995673E0
3.067678106E0,-4.955997467E-1,9.656114578E0,3.711012602E-1,9.675943572E0
3.069677372E0,-7.876923680E-1,9.692028046E0,4.812345505E-1,9.735884839E0
3.071677338E0,-1.031900883E0,9.711181641E0,5.913678408E-1,9.783740809E0
3.073675671E0,-1.242590666E0,9.732728958E0,5.147533417E-1,9.825223435E0
3.075674804E0,-1.242590666E0,9.732728958E0,5.147533417E-1,9.825223435E0
3.077674837E0,-1.242590666E0,9.732728958E0,5.147533417E-1,9.825223435E0
3.079674870E0,-1.290474772E0,9.730335236E0,4.309563041E-1,9.824992228E0
3.081674903E0,-1.266532660E0,9.823708534E0,3.806780577E-1,9.912329198E0
3.083674936E0,-1.233013868E0,9.845256805E0,3.734954596E-1,9.929194510E0
3.085674969E0,-1.197100878E0,9.850045204E0,3.687070608E-1,9.929369866E0
3.087675002E0,-1.096544385E0,9.883563995E0,3.399766386E-1,9.950016631E0
3.089675035E0,-9.672574997E-1,9.905111313E0,3.040636182E-1,9.956870586E0
3.091675068E0,-9.121908545E-1,9.897929192E0,2.753331959E-1,9.943686580E0
3.093675934E0,-7.972691655E-1,9.893140793E0,2.537853718E-1,9.928458082E0
3.095676800E0,-6.727706790E-1,9.883563995E0,2.130839527E-1,9.908726579E0
3.097676800E0,-6.248866320E-1,9.883563995E0,2.011129409E-1,9.905340326E0
3.099676800E0,-5.027823448E-1,9.852438927E0,1.771709323E-1,9.866850178E0
3.101676300E0,-4.165911078E-1,9.845256805E0,1.364694983E-1,9.855011600E0
3.103676700E0,-3.687070608E-1,9.833285332E0,1.292868853E-1,9.841044681E0
3.105676666E0,-3.040636182E-1,9.799766541E0,1.005564705E-1,9.804998243E0
3.107676632E0,-2.825157940E-1,9.778219223E0,1.029506698E-1,9.782841366E0
3.109676598E0,-2.777273953E-1,9.766247749E0,1.029506698E-1,9.770738275E0
3.111676564E0,-2.609679997E-1,9.761459351E0,8.140286058E-2,9.765286446E0
3.113675797E0,-2.920926213E-1,9.735123634E0,8.619125932E-2,9.739885996E0
3.115674897E0,-2.920926213E-1,9.735123634E0,8.619125932E-2,9.739885996E0
3.117674763E0,-2.920926213E-1,9.735123634E0,8.619125932E-2,9.739885996E0
3.119674729E0,-3.495534360E-1,9.701604843E0,4.309562966E-2,9.707995744E0
3.121674729E0,-3.567360640E-1,9.711181641E0,1.053448766E-1,9.718302682E0
3.123674762E0,-3.615244627E-1,9.708786964E0,1.029506698E-1,9.716061090E0
3.125674795E0,-6.512228847E-1,9.692028046E0,4.788403213E-2,9.713999782E0
3.127674828E0,-6.895300746E-1,9.258677483E0,3.543418646E-1,9.291077365E0
3.129675561E0,-3.040636182E-1,9.584288597E0,3.711012602E-1,9.596288800E0
3.131675594E0,-2.418143749E-1,9.857227325E0,4.309562966E-2,9.860287114E0
3.133676360E0,-3.375824392E-1,9.845256805E0,-9.576806799E-3,9.851047416E0
3.135677260E0,-3.974374831E-1,9.802161217E0,-1.915361360E-2,9.810233837E0
3.137676860E0,-4.836287498E-1,9.732728958E0,-7.182604820E-2,9.745002243E0
3.139676826E0,-4.955997467E-1,9.660902977E0,2.394201700E-3,9.673606937E0
3.141676792E0,-4.740519226E-1,9.605836868E0,3.351882473E-2,9.617585491E0
3.143676758E0,-4.740519226E-1,9.581894875E0,5.267243832E-2,9.593758857E0
3.145676724E0,-4.955997467E-1,9.567529678E0,6.703764945E-2,9.580591699E0
3.147676690E0,-4.979939461E-1,9.584288597E0,7.422025502E-2,9.597504599E0
3.149676656E0,-5.003881454E-1,9.586683273E0,7.900865376E-2,9.600058690E0
3.151676622E0,-4.955997467E-1,9.617807388E0,8.619125932E-2,9.630953587E0
3.153675755E0,-4.955997467E-1,9.680056572E0,5.267243832E-2,9.692878248E0
3.155674921E0,-4.860229492E-1,9.699210167E0,1.436521020E-2,9.711390350E0
3.157675521E0,-4.860229492E-1,9.699210167E0,1.436521020E-2,9.711390350E0
3.159675554E0,-4.644751251E-1,9.720758438E0,-2.394201607E-2,9.731878286E0
3.161675587E0,-4.477157295E-1,9.754277229E0,-2.633621916E-2,9.764582287E0
3.163675620E0,-4.261679053E-1,9.759065628E0,-4.070143029E-2,9.768451137E0
3.165675653E0,-4.070142806E-1,9.775824547E0,-3.351882473E-2,9.784351267E0
3.167675686E0,-3.926490843E-1,9.761459351E0,-1.915361360E-2,9.769371977E0
3.169675719E0,-4.405331016E-1,9.727940559E0,-1.915361360E-2,9.737929133E0
3.171675719E0,-3.711012602E-1,9.675268173E0,2.394201700E-3,9.682382770E0
3.173676285E0,-3.758896589E-1,9.577106476E0,7.422025502E-2,9.584767610E0
3.175677151E0,-2.466027737E-1,9.682451248E0,5.985504389E-2,9.685776052E0
3.177677251E0,-3.040636182E-1,9.720758438E0,1.005564705E-1,9.726032639E0
3.179677251E0,-3.016694188E-1,9.711181641E0,1.149216816E-1,9.716545697E0
3.181677251E0,-3.088520169E-1,9.627384186E0,1.173158810E-1,9.633051378E0
3.183677217E0,-3.088520169E-1,9.601048470E0,1.364694983E-1,9.606984189E0
3.185677183E0,-3.256114423E-1,9.557952881E0,1.388636976E-1,9.564505696E0
3.187677149E0,-3.280056417E-1,9.534010887E0,1.508347094E-1,9.540843904E0
3.189677115E0,-2.849099934E-1,9.581894875E0,1.795651317E-1,9.587811363E0
3.191677081E0,-2.849099934E-1,9.615413666E0,1.747767180E-1,9.621221366E0
3.193676314E0,-2.729389966E-1,9.759065628E0,1.628057212E-1,9.764239004E0
3.195675414E0,-2.729389966E-1,9.759065628E0,1.628057212E-1,9.764239004E0
3.197675647E0,-2.825157940E-1,9.802161217E0,1.699883193E-1,9.807704916E0
3.199675647E0,-2.753331959E-1,9.852438927E0,1.771709323E-1,9.857877597E0
3.201675680E0,-2.202665508E-1,1.000806236E1,2.011129409E-1,1.001250598E1
3.203675713E0,-2.011129409E-1,1.005355263E1,2.059013397E-1,1.005767181E1
3.205675746E0,-1.747767180E-1,1.011340714E1,2.082955539E-1,1.011706172E1
3.207675779E0,-1.388636976E-1,1.021635818E1,2.130839527E-1,1.021952359E1
3.209675812E0,-9.097966552E-2,1.028818417E1,2.178723514E-1,1.029089302E1
3.211675845E0,-5.506663769E-2,1.036001015E1,2.106897533E-1,1.036229862E1
3.213676445E0,-3.591302410E-2,1.039592266E1,2.059013397E-1,1.039802352E1
3.215677311E0,7.182605099E-3,1.045817184E1,1.987187415E-1,1.046006210E1
3.217676711E0,6.464344263E-2,1.052760410E1,2.082955539E-1,1.052986296E1
3.219676677E0,8.858546615E-2,1.053718090E1,2.059013397E-1,1.053956470E1
3.221676643E0,1.077390760E-1,1.056112289E1,2.035071403E-1,1.056363288E1
3.223676609E0,1.101332754E-1,1.054196930E1,2.035071403E-1,1.054450858E1
3.225675775E0,1.149216816E-1,1.055633450E1,2.082955539E-1,1.055901473E1
3.227675741E0,1.125274822E-1,1.055394077E1,2.298433632E-1,1.055704297E1
3.229675707E0,7.422025502E-2,1.054675770E1,2.394201756E-1,1.054973595E1
3.231675707E0,4.309562966E-2,1.053478718E1,2.418143749E-1,1.053765023E1
3.233675173E0,-1.221042871E-1,1.049169159E1,3.088520169E-1,1.049694677E1
3.235674339E0,-1.221042871E-1,1.049169159E1,3.088520169E-1,1.049694677E1
3.237674939E0,-1.221042871E-1,1.049169159E1,3.088520169E-1,1.049694677E1
3.239674672E0,-1.915361285E-1,1.046056652E1,3.351882398E-1,1.046768786E1
3.241674705E0,-3.136404157E-1,1.043183613E1,3.423708379E-1,1.044216420E1
3.243674738E0,-3.303998411E-1,1.043183613E1,3.423708379E-1,1.044268102E1
3.245674771E0,-3.399766386E-1,1.040549946E1,3.639186621E-1,1.041741042E1
3.247674804E0,-4.022258818E-1,1.037676907E1,3.687070608E-1,1.039110518E1
3.249674804E0,-4.429273009E-1,1.036479855E1,3.806780577E-1,1.038124026E1
3.251674804E0,-4.548983276E-1,1.034564495E1,3.878606856E-1,1.036290200E1
3.253675670E0,-4.979939461E-1,1.033846188E1,3.806780577E-1,1.035744697E1
3.255676536E0,-5.219359994E-1,1.031930828E1,3.734954596E-1,1.033924753E1
3.257676669E0,-5.147533417E-1,1.030254936E1,3.687070608E-1,1.032198814E1
3.259676669E0,-4.692635238E-1,1.026184750E1,3.639186621E-1,1.027901547E1
3.261676635E0,-4.548983276E-1,1.026663589E1,3.615244627E-1,1.028306593E1
3.263676601E0,-4.357447028E-1,1.027142429E1,3.567360640E-1,1.028685040E1
3.265676567E0,-4.141969085E-1,1.027142429E1,3.854664862E-1,1.028699667E1
3.267676533E0,-4.165911078E-1,1.029776096E1,4.285621047E-1,1.031509062E1
3.269677533E0,-3.806780577E-1,1.036719227E1,4.620809257E-1,1.038446484E1
3.271677499E0,-3.591302633E-1,1.041747093E1,4.764461517E-1,1.043454245E1
3.273676899E0,-2.992752194E-1,1.064731407E1,4.572925270E-1,1.066133102E1
3.275675999E0,-2.992752194E-1,1.064731407E1,4.572925270E-1,1.066133102E1
3.277675999E0,-2.992752194E-1,1.064731407E1,4.572925270E-1,1.066133102E1
3.279676032E0,-2.705447972E-1,1.071914005E1,4.237737060E-1,1.073092457E1
3.281676065E0,-2.082955539E-1,1.078138924E1,3.926490843E-1,1.079054745E1
3.283676098E0,-1.867477298E-1,1.081251431E1,3.998316824E-1,1.082151587E1
3.285676931E0,-1.412578970E-1,1.088434029E1,4.141969085E-1,1.089313437E1
3.287676964E0,-9.097966552E-2,1.098010826E1,4.620809257E-1,1.099020352E1
3.289676997E0,-6.224924326E-2,1.107348251E1,5.147533417E-1,1.108561505E1
3.291677030E0,-5.267243832E-2,1.132247925E1,6.105214357E-1,1.133904966E1
3.293677896E0,-5.027823523E-2,1.152119827E1,6.416460276E-1,1.153916146E1
3.295678729E0,-6.224924326E-2,1.162175465E1,6.607996821E-1,1.164069209E1
3.297678129E0,-5.746084079E-2,1.186596298E1,7.134721279E-1,1.188753220E1
3.299678395E0,-5.267243832E-2,1.214847851E1,7.326257229E-1,1.217066329E1
3.301678361E0,-3.591302410E-2,1.244775391E1,6.631938815E-1,1.246546001E1
3.303678327E0,-3.351882473E-2,1.258182907E1,6.129156351E-1,1.259679371E1
3.305678293E0,-4.070143029E-2,1.284519100E1,4.836287498E-1,1.285435666E1
3.307678259E0,-4.788403213E-2,1.295293045E1,4.141969085E-1,1.295963963E1
3.309678259E0,-4.309562966E-2,1.310855389E1,2.633621991E-1,1.311127003E1
3.311678292E0,-5.746084079E-2,1.319235039E1,1.125274822E-1,1.319295543E1
3.313677458E0,-1.364694983E-1,1.325938797E1,-9.576806426E-2,1.326043607E1
3.315676624E0,-1.364694983E-1,1.325938797E1,-9.576806426E-2,1.326043607E1
3.317676690E0,-1.532289088E-1,1.326178265E1,-1.604115069E-1,1.326363788E1
3.319676723E0,-2.011129409E-1,1.323784065E1,-3.256114423E-1,1.324337171E1
3.321676689E0,-2.154781520E-1,1.320911026E1,-5.003881454E-1,1.322034088E1
3.323676722E0,-1.939303428E-1,1.317319679E1,-5.937620401E-1,1.318799742E1
3.325676755E0,-1.197100878E-1,1.304869843E1,-7.924807668E-1,1.307328906E1
3.327676755E0,-7.661445439E-2,1.298884392E1,-8.667010069E-1,1.301795325E1
3.329675721E0,1.436521020E-2,1.288589287E1,-9.720458984E-1,1.292251193E1
3.331675721E0,1.292868853E-1,1.267759705E1,-1.149216771E0,1.273023492E1
3.333676587E0,1.891419291E-1,1.256985855E1,-1.216254473E0,1.262997995E1
3.335677453E0,3.902548850E-1,1.232564926E1,-1.297657371E0,1.239991303E1
3.337677453E0,6.296750307E-1,1.208383560E1,-1.333570361E0,1.217349512E1
3.339678586E0,8.738836050E-1,1.194736576E1,-1.362300754E0,1.205649553E1
3.341678552E0,1.084573388E0,1.151880360E1,-1.462857246E0,1.166186465E1
3.343678518E0,1.189918280E0,1.133684444E1,-1.477222443E0,1.149443925E1
3.345632843E0,1.391031146E0,1.115488529E1,-1.498770237E0,1.134075596E1
3.347632809E0,1.472434044E0,1.080293751E1,-1.505952835E0,1.100633521E1
3.349632775E0,1.596932530E0,1.050126839E1,-1.498770237E0,1.072721508E1
3.351632741E0,1.654393315E0,1.018523312E1,-1.592144132E0,1.044082917E1
3.353631841E0,1.477222443E0,9.780612946E0,-1.910573006E0,1.007436673E1
3.355630974E0,1.477222443E0,9.780612946E0,-1.910573006E0,1.007436673E1
3.357630207E0,1.355118155E0,9.754277229E0,-1.994369984E0,1.004787446E1
3.359630240E0,1.216254473E0,9.768642426E0,-2.080561161E0,1.006152993E1
3.361630273E0,7.757213712E-1,9.984120369E0,-2.317587137E0,1.027889164E1
3.363631773E0,6.224924326E-1,1.008467674E1,-2.398990154E0,1.038476555E1
3.365631806E0,4.668693244E-1,1.019480991E1,-2.473210335E0,1.050089927E1
3.367631839E0,1.436520964E-1,1.047972012E1,-2.633621931E0,1.080653201E1
3.369631872E0,-2.322375625E-1,1.079096603E1,-2.815581083E0,1.115465728E1
3.371631872E0,-5.817909837E-1,1.114052010E1,-3.045424461E0,1.156392143E1
3.373632705E0,-7.541735172E-1,1.135360336E1,-3.138798475E0,1.180360720E1
3.375633538E0,-1.142034173E0,1.189708710E1,-3.275267839E0,1.239242926E1
3.377633471E0,-1.539471745E0,1.218439198E1,-3.428496838E0,1.275084200E1
3.379633437E0,-1.735796213E0,1.268238544E1,-3.514688015E0,1.327437083E1
3.381633470E0,-2.097320795E0,1.308700562E1,-3.610456228E0,1.373695252E1
3.383633436E0,-2.418143749E0,1.341261673E1,-3.596091032E0,1.409530338E1
3.385633402E0,-2.564189911E0,1.353472137E1,-3.581725836E0,1.423349966E1
3.387633402E0,-2.817975283E0,1.369752693E1,-3.586514235E0,1.443697728E1
3.389633435E0,-3.083731890E0,1.384357357E1,-3.617638826E0,1.463698201E1
3.391633468E0,-3.229778051E0,1.393455315E1,-3.643975019E0,1.476081948E1
3.393632634E0,-4.165910721E0,1.401595592E1,-3.878606796E0,1.512763773E1
3.395631800E0,-4.165910721E0,1.401595592E1,-3.878606796E0,1.512763773E1
3.397631833E0,-4.165910721E0,1.401595592E1,-3.878606796E0,1.512763773E1
3.399630699E0,-4.683058739E0,1.378611279E1,-3.871424198E0,1.506571838E1
3.401630732E0,-5.590760231E0,1.350359726E1,-3.667917013E0,1.506842242E1
3.403630432E0,-5.590760231E0,1.350359726E1,-3.667917013E0,1.506842242E1
3.405630432E0,-6.280290127E0,1.349880886E1,-3.615244627E0,1.532089679E1
3.407630432E0,-6.941090107E0,1.351077938E1,-3.675099611E0,1.562773971E1
3.409630432E0,-7.410353661E0,1.356584644E1,-3.634398222E0,1.587936968E1
3.411630432E0,-7.561188221E0,1.388188076E1,-3.371036053E0,1.616298440E1
3.413631298E0,-7.704840183E0,1.446367168E1,-2.997540474E0,1.665976019E1
3.415632164E0,-7.678503990E0,1.513674164E1,-2.691082716E0,1.718494391E1
3.417632930E0,-7.616254807E0,1.542404556E1,-2.590526342E0,1.739595774E1
3.419632896E0,-7.453449249E0,1.588373280E1,-2.583343744E0,1.773472690E1
3.421632862E0,-7.204452038E0,1.614948845E1,-2.861071110E0,1.791356565E1
3.423631362E0,-7.063194275E0,1.623089218E1,-3.047818661E0,1.796161944E1
3.425631328E0,-6.708852291E0,1.637693787E1,-3.476380825E0,1.803601998E1
3.427631294E0,-6.225223541E0,1.645355225E1,-3.859453201E0,1.801022400E1
3.429631260E0,-5.928342819E0,1.647749519E1,-4.043806553E0,1.797235288E1
3.431631226E0,-5.265148640E0,1.646552277E1,-4.225766182E0,1.779585148E1
3.433630359E0,-3.596091032E0,1.655889702E1,-4.252102375E0,1.747024086E1
3.435629492E0,-3.596091032E0,1.655889702E1,-4.252102375E0,1.747024086E1
3.437629225E0,-3.596091032E0,1.655889702E1,-4.252102375E0,1.747024086E1
3.439629258E0,-3.047818661E0,1.654932022E1,-4.091690540E0,1.731794243E1
3.441629291E0,-2.588132143E0,1.642961121E1,-4.029441357E0,1.711335590E1
3.443629324E0,-2.415749550E0,1.633623695E1,-3.883395195E0,1.696435209E1
3.445629357E0,-2.025494576E0,1.626201630E1,-3.706224203E0,1.680154458E1
3.447629323E0,-1.819593310E0,1.609921074E1,-3.622427225E0,1.660173139E1
3.449629323E0,-1.704671621E0,1.601301956E1,-3.574543238E0,1.649545574E1
3.451629289E0,-1.611297727E0,1.591964531E1,-3.311181068E0,1.633999104E1
3.453630122E0,-1.436521053E0,1.587654972E1,-3.198653460E0,1.625914536E1
3.455630955E0,-1.338358760E0,1.581908894E1,-3.141192675E0,1.618338254E1
3.457630921E0,-1.213860273E0,1.574965763E1,-2.834734917E0,1.604870382E1
3.459630887E0,-9.672574997E-1,1.574965763E1,-2.715024710E0,1.601120426E1
3.461630853E0,-7.876923680E-1,1.571853256E1,-2.604891539E0,1.595237240E1
3.463631153E0,-6.943184733E-1,1.567783165E1,-2.602497339E0,1.590752890E1
3.465631153E0,-5.027823448E-1,1.555572701E1,-2.643198729E0,1.578670112E1
3.467631186E0,-4.429273009E-1,1.550305462E1,-2.628833532E0,1.573059607E1
3.469630552E0,-4.357447028E-1,1.537855625E1,-2.607285738E0,1.560409577E1
3.471630385E0,-4.357447028E-1,1.514153004E1,-2.679111719E0,1.538289456E1
3.473629518E0,-5.937620401E-1,1.471296787E1,-2.817975283E0,1.499216334E1
3.475628684E0,-5.937620401E-1,1.471296787E1,-2.817975283E0,1.499216334E1
3.477628650E0,-6.296750307E-1,1.456422806E1,-2.837129116E0,1.485134779E1
3.479627783E0,-6.679822803E-1,1.440621090E1,-2.853888512E0,1.470135342E1
3.481627816E0,-7.852981687E-1,1.398483181E1,-2.856282711E0,1.429512382E1
3.483627816E0,-8.020575643E-1,1.383160210E1,-2.856282711E0,1.414619609E1
3.485627816E0,-7.326257229E-1,1.357542324E1,-2.782062292E0,1.387691346E1
3.487627816E0,-7.110779285E-1,1.343895340E1,-2.707842112E0,1.372747279E1
3.489627816E0,-7.134721279E-1,1.303912163E1,-2.683900118E0,1.333158112E1
3.491627816E0,-6.703764796E-1,1.269435692E1,-2.523488522E0,1.296009632E1
3.493628682E0,-6.224924326E-1,1.253873348E1,-2.398990154E0,1.278133357E1
3.495629548E0,-5.267243981E-1,1.228015995E1,-2.181117773E0,1.248347074E1
3.497629814E0,-4.094084799E-1,1.200961494E1,-2.049436569E0,1.219010487E1
3.499629780E0,-3.471592367E-1,1.187793350E1,-1.996764183E0,1.204960128E1
3.501630113E0,-1.939303428E-1,1.153077507E1,-1.891419291E0,1.168648149E1
3.503630079E0,-1.484405100E-1,1.144458294E1,-1.879448295E0,1.159882921E1
3.505630045E0,-8.140286058E-2,1.136557484E1,-1.891419291E0,1.152216927E1
3.507630078E0,1.675941236E-2,1.123868179E1,-1.934514999E0,1.140397289E1
3.509630044E0,4.788403213E-2,1.120276928E1,-1.991975784E0,1.137858954E1
3.511630044E0,1.268926859E-1,1.113094330E1,-2.085349798E0,1.132531166E1
3.513629177E0,2.705447972E-1,1.107108784E1,-2.248155355E0,1.130028243E1
3.515628343E0,2.705447972E-1,1.107108784E1,-2.248155355E0,1.130028243E1
3.517628376E0,3.088520169E-1,1.104954052E1,-2.255337954E0,1.128159052E1
3.519628409E0,3.806780577E-1,1.095137787E1,-2.281674147E0,1.119301702E1
3.521628442E0,4.501099288E-1,1.083885002E1,-2.284068346E0,1.108603793E1
3.523628408E0,5.243301988E-1,1.078138924E1,-2.284068346E0,1.103314299E1
3.525628441E0,6.153098345E-1,1.069519806E1,-2.279279947E0,1.095267021E1
3.527628441E0,7.398083210E-1,1.047493172E1,-2.286462545E0,1.074706573E1
3.529629074E0,8.690952063E-1,1.022832870E1,-2.286462545E0,1.051674596E1
3.531629240E0,9.959878922E-1,1.007509995E1,-2.286462545E0,1.037918791E1
3.533630106E0,1.024718285E0,9.778219223E0,-2.231395960E0,1.008180275E1
3.535630939E0,1.130063176E0,9.507674217E0,-2.221819162E0,9.829007691E0
3.537630972E0,1.170764685E0,9.354445457E0,-2.209848166E0,9.682962805E0
3.539631838E0,1.244984865E0,9.093477249E0,-2.142810583E0,9.425123500E0
3.541631804E0,1.333570361E0,8.846874237E0,-2.080561161E0,9.185549979E0
3.543631804E0,1.393425345E0,8.736741066E0,-2.020706177E0,9.074994882E0
3.545631837E0,1.429338455E0,8.566753387E0,-1.987187386E0,8.909611985E0
3.547631870E0,1.537077546E0,8.391976357E0,-1.951274395E0,8.751876731E0
3.549631903E0,1.608903527E0,8.190863609E0,-1.953668594E0,8.572959711E0
3.551631936E0,1.635239720E0,8.104672432E0,-1.953668594E0,8.495678028E0
3.553631102E0,1.771709204E0,7.757512569E0,-1.984793186E0,8.201058393E0
3.555630268E0,1.771709204E0,7.757512569E0,-1.984793186E0,8.201058393E0
3.557630301E0,1.771709204E0,7.757512569E0,-1.984793186E0,8.201058393E0
3.559630334E0,1.900996208E0,7.585130215E0,-1.980004787E0,8.066498988E0
3.561629967E0,2.087743998E0,7.417536259E0,-1.936909199E0,7.945447526E0
3.563629967E0,2.087743998E0,7.340921879E0,-1.912967205E0,7.868116201E0
3.565629967E0,2.226607561E0,7.135020256E0,-1.900996208E0,7.712333102E0
3.567629967E0,2.363077164E0,6.936301708E0,-1.857900500E0,7.559643466E0
3.569629967E0,2.451662540E0,6.845322132E0,-1.841141105E0,7.500592301E0
