Time (s),Acceleration x (m/s^2),Acceleration y (m/s^2),Acceleration z (m/s^2),Absolute acceleration (m/s^2)
0.01715847,0.435744703,9.835680008,0.383072257,9.852777224
0.01915847,0.462080926,9.823708534,0.366312861,9.841389803
0.02115847,0.497993946,9.773430824,0.344765037,9.792181114
0.02315847,0.555454791,9.742305756,0.320823014,9.763399964
0.02515847,0.572214186,9.727940559,0.304063618,9.749498002
0.02715847,0.586579442,9.703998566,0.287304193,9.725955341
0.02915327,0.586579442,9.703998566,0.287304193,9.725955341
0.031148936,0.586579442,9.703998566,0.287304193,9.725955341
0.033148936,0.586579442,9.715970039,0.294486821,9.738114383
0.035149061,0.636857629,9.720758438,0.426167905,9.75091541
0.037149172,0.579396784,9.794978142,0.282515794,9.816165881
0.039149272,0.517147541,9.790189743,0.268150598,9.807505367
0.041149362,0.526724398,9.780612946,0.270544797,9.798521453
0.043149445,0.521935999,9.780612946,0.292092621,9.798883859
0.045149521,0.509964943,9.794978142,0.282515794,9.81231248
0.047149592,0.488417149,9.804554939,0.320823014,9.821953791
0.049149658,0.507570744,9.802161217,0.366312861,9.822126943
0.051149658,0.51954174,9.790189743,0.395043284,9.81192122
0.053149658,0.51954174,9.756670952,0.438138902,9.780312744
0.055149658,0.507570744,9.766247749,0.438138902,9.789238421
0.057149658,0.500388145,9.766247749,0.435744703,9.788761763
0.059149658,0.48362875,9.744700432,0.404620081,9.76508068
0.061149658,0.471657723,9.732728958,0.356736064,9.750678674
0.063149658,0.471657723,9.735123634,0.33279404,9.75222257
0.065149658,0.464475125,9.737517357,0.311246216,9.75355605
0.067149699,0.490811348,9.766247749,0.33518824,9.784316125
0.069148699,0.490811348,9.766247749,0.33518824,9.784316125
0.071147737,0.490811348,9.766247749,0.33518824,9.784316125
0.073147774,0.481234551,9.771036148,0.349553436,9.789122622
0.075147809,0.495599747,9.778219223,0.356736064,9.797267522
0.077147843,0.505176544,9.759065628,0.363918662,9.778905975
0.079147876,0.512359142,9.771036148,0.37110126,9.791495057
0.081147909,0.526724398,9.775824547,0.361524463,9.796677197
0.083147909,0.526724398,9.768642426,0.363918662,9.789599084
0.085147909,0.538695395,9.759065628,0.356736064,9.78043022
0.087147909,0.538695395,9.754277229,0.375889659,9.776369982
0.089148775,0.538695395,9.754277229,0.368707061,9.776096455
0.091149641,0.543483794,9.761459351,0.368707061,9.78352739
0.093149641,0.543483794,9.763854027,0.375889659,9.786189919
0.095149607,0.541089594,9.759065628,0.385466486,9.781652432
0.097149573,0.538695395,9.744700432,0.383072257,9.767093917
0.099149539,0.507570744,9.747094154,0.375889659,9.767536309
0.101149505,0.490811348,9.749488831,0.37110126,9.768886548
0.103149471,0.440533102,9.739912033,0.368707061,9.756838664
0.105149437,0.421379507,9.735123634,0.368707061,9.751212118
0.107149403,0.392649084,9.730335236,0.37110126,9.745322634
0.109148503,0.392649084,9.730335236,0.37110126,9.745322634
0.111147636,0.392649084,9.730335236,0.37110126,9.745322634
0.113147669,0.404620081,9.737517357,0.37349546,9.753074415
0.115147702,0.407014281,9.744700432,0.378283858,9.760529996
0.117147735,0.423773706,9.751882553,0.383072257,9.768599789
0.119147768,0.438138902,9.759065628,0.37349546,9.77603327
0.121147801,0.440533102,9.759065628,0.368707061,9.775959096
0.123147834,0.478840351,9.768642426,0.366312861,9.787228823
0.125147867,0.490811348,9.780612946,0.361524463,9.799591079
0.127147867,0.51954174,9.773430824,0.37110126,9.794263109
0.1291487,0.529118598,9.771036148,0.385466486,9.792941249
0.131149533,0.543483794,9.773430824,0.354341865,9.794941698
0.133149499,0.548272193,9.775824547,0.351947635,9.797510659
0.135149465,0.550666392,9.785401344,0.342370838,9.806861411
0.137149431,0.543483794,9.797372818,0.342370838,9.818406518
0.139149397,0.555454791,9.804554939,0.33518824,9.825995051
0.141149363,0.55784899,9.806949615,0.330399841,9.828357966
0.143149663,0.545877993,9.806949615,0.33279404,9.827766553
0.145149696,0.543483794,9.778219223,0.339976639,9.799210679
0.147149729,0.538695395,9.785401344,0.344765037,9.806280392
0.149148895,0.538695395,9.785401344,0.344765037,9.806280392
0.151148061,0.538695395,9.785401344,0.344765037,9.806280392
0.153147961,0.541089594,9.778219223,0.347159237,9.799330011
0.155147994,0.526724398,9.756670952,0.342370838,9.776874984
0.157148027,0.500388145,9.768642426,0.344765037,9.787524001
0.15914806,0.488417149,9.761459351,0.342370838,9.779665524
0.16114806,0.502782345,9.747094154,0.349553436,9.76631057
0.16314806,0.509964943,9.751882553,0.356736064,9.771721353
0.16514806,0.502782345,9.747094154,0.359130263,9.766658031
0.16714806,0.486022949,9.744700432,0.351947635,9.763158913
0.169148926,0.474051923,9.756670952,0.351947635,9.774518936
0.171149792,0.476446152,9.763854027,0.349553436,9.781719378
0.173149758,0.469263524,9.761459351,0.339976639,9.77864413
0.175149724,0.474051923,9.768642426,0.325611442,9.785556851
0.17714969,0.454898328,9.766247749,0.313640416,9.781865768
0.179149656,0.44771573,9.768642426,0.325611442,9.78431638
0.181149622,0.44532153,9.768642426,0.337582439,9.784612818
0.183149588,0.44532153,9.763854027,0.351947635,9.780338637
0.185149554,0.442927301,9.763854027,0.356736064,9.7804034
0.18714952,0.471657723,9.768642426,0.354341865,9.786439291
0.189148653,0.471657723,9.768642426,0.354341865,9.786439291
0.191147819,0.471657723,9.768642426,0.354341865,9.786439291
0.193147852,0.474051923,9.754277229,0.337582439,9.771622762
0.195147885,0.469263524,9.756670952,0.325611442,9.773375012
0.197147918,0.474051923,9.754277229,0.318428814,9.770979808
0.199147951,0.486022949,9.756670952,0.320823014,9.774035695
0.201147984,0.502782345,9.759065628,0.325611442,9.777431914
0.203147717,0.497993946,9.751882553,0.328005642,9.770097185
0.205147717,0.502782345,9.754277229,0.342370838,9.773225268
0.207147683,0.497993946,9.763854027,0.366312861,9.783405774
0.209148516,0.502782345,9.759065628,0.363918662,9.778782583
0.211149349,0.502782345,9.763854027,0.368707061,9.783740616
0.213149449,0.509964943,9.778219223,0.387860686,9.799187279
0.215149415,0.517147541,9.768642426,0.397437483,9.79039187
0.217149381,0.507570744,9.763854027,0.387860686,9.784728378
0.219149347,0.502782345,9.756670952,0.387860686,9.777313233
0.221149347,0.497993946,9.754277229,0.37110126,9.774028769
0.22314938,0.486022949,9.759065628,0.363918662,9.777935213
0.225149413,0.493205547,9.761459351,0.342370838,9.779905836
0.227149446,0.550666392,9.768642426,0.33518824,9.789890677
0.229148612,0.550666392,9.768642426,0.33518824,9.789890677
0.231147778,0.550666392,9.768642426,0.33518824,9.789890677
0.233147811,0.548272193,9.766247749,0.337582439,9.787449075
0.235147444,0.51954174,9.761459351,0.339976639,9.781185838
0.237147477,0.512359142,9.766247749,0.337582439,9.785502997
0.239147477,0.500388145,9.763854027,0.351947635,9.783000608
0.241147477,0.505176544,9.754277229,0.344765037,9.773432894
0.243147477,0.502782345,9.751882553,0.337582439,9.770668622
0.245147477,0.495599747,9.754277229,0.339976639,9.77277481
0.247147477,0.469263524,9.754277229,0.356736064,9.772072101
0.249148343,0.454898328,9.754277229,0.351947635,9.771219161
0.251149176,0.44771573,9.742305756,0.344765037,9.758679918
0.253149142,0.44532153,9.763854027,0.344765037,9.780082804
0.255149108,0.44532153,9.768642426,0.351947635,9.785118969
0.257149074,0.430956304,9.763854027,0.359130263,9.779956203
0.25914904,0.435744703,9.754277229,0.356736064,9.77051986
0.261149006,0.423773706,9.749488831,0.349553436,9.764952853
0.263148972,0.421379507,9.754277229,0.339976639,9.769292148
0.265148938,0.404620081,9.744700432,0.339976639,9.759020854
0.267148938,0.433350503,9.744700432,0.356736064,9.760852411
0.269148104,0.433350503,9.744700432,0.356736064,9.760852411
0.27114727,0.428562105,9.739912033,0.361524463,9.756036686
0.273147003,0.423773706,9.749488831,0.359130263,9.765300362
0.275147036,0.423773706,9.759065628,0.361524463,9.774949924
0.277147069,0.407014281,9.775824547,0.363918662,9.791059339
0.279147102,0.430956304,9.766247749,0.359130263,9.782345986
0.281147135,0.438138902,9.761459351,0.363918662,9.778061727
0.283147135,0.452504128,9.763854027,0.344765037,9.780412485
0.285147101,0.450109929,9.763854027,0.323217243,9.779566135
0.287147067,0.462080926,9.773430824,0.328005642,9.789844563
0.289147667,0.466869324,9.785401344,0.339976639,9.802429829
0.2911485,0.466869324,9.785401344,0.354341865,9.802938569
0.293148466,0.476446152,9.773430824,0.351947635,9.791364468
0.295148832,0.486022949,9.766247749,0.347159237,9.784494517
0.297148798,0.502782345,9.775824547,0.344765037,9.794814883
0.299148798,0.497993946,9.778219223,0.347159237,9.797044895
0.301148831,0.486022949,9.780612946,0.342370838,9.798664485
0.303148864,0.486022949,9.775824547,0.313640416,9.792922658
0.305148897,0.481234551,9.783007622,0.318428814,9.800011313
0.30714893,0.450109929,9.792584419,0.339976639,9.808817088
0.309148096,0.450109929,9.792584419,0.339976639,9.808817088
0.311147262,0.450109929,9.792584419,0.339976639,9.808817088
0.313147295,0.459686726,9.792584419,0.347159237,9.809512783
0.315147328,0.457292527,9.792584419,0.356736064,9.809744476
0.317147328,0.44771573,9.787796021,0.354341865,9.804435653
0.319147328,0.44532153,9.775824547,0.359130263,9.79254979
0.321147328,0.440533102,9.775824547,0.351947635,9.792072412
0.323147328,0.440533102,9.766247749,0.349553436,9.782425677
0.325147328,0.433350503,9.768642426,0.351947635,9.784581475
0.327146994,0.440533102,9.775824547,0.356736064,9.792245687
0.329147827,0.433350503,9.775824547,0.344765037,9.79149637
0.33114866,0.450109929,9.773430824,0.339976639,9.789695253
0.333148926,0.440533102,9.792584419,0.347159237,9.808633878
0.335148892,0.44532153,9.773430824,0.356736064,9.790072623
0.337148858,0.430956304,9.761459351,0.356736064,9.777477824
0.339148824,0.442927301,9.751882553,0.363918662,9.768717148
0.34114879,0.457292527,9.749488831,0.37349546,9.767351113
0.343148756,0.450109929,9.766247749,0.363918662,9.783385449
0.345148756,0.442927301,9.763854027,0.366312861,9.780757392
0.347148789,0.40940848,9.756670952,0.349553436,9.771511192
0.349148189,0.40940848,9.756670952,0.349553436,9.771511192
0.351147355,0.426167905,9.761459351,0.354341865,9.777180877
0.353147388,0.426167905,9.761459351,0.354341865,9.777180877
0.355147421,0.452504128,9.778219223,0.359130263,9.795269558
0.357147454,0.452504128,9.763854027,0.366312861,9.781195763
0.359147487,0.452504128,9.763854027,0.37349546,9.78146739
0.361147487,0.459686726,9.759065628,0.356736064,9.776396802
0.363147453,0.478840351,9.766247749,0.349553436,9.78422561
0.365147419,0.48362875,9.756670952,0.33518824,9.774399009
0.367147385,0.474051923,9.749488831,0.325611442,9.766436428
0.369148218,0.507570744,9.754277229,0.325611442,9.772900037
0.371149051,0.512359142,9.749488831,0.323217243,9.768291239
0.373149017,0.514753342,9.756670952,0.320823014,9.775506456
0.375148983,0.505176544,9.775824547,0.33518824,9.794605662
0.377148983,0.517147541,9.775824547,0.337582439,9.795312606
0.379149016,0.526724398,9.785401344,0.313640416,9.804585069
0.381149049,0.517147541,9.773430824,0.318428814,9.792282092
0.383149082,0.526724398,9.766247749,0.313640416,9.785469023
0.385149115,0.524330199,9.768642426,0.301669419,9.787354159
0.387149481,0.550666392,9.785401344,0.349553436,9.807114792
0.389148647,0.550666392,9.785401344,0.349553436,9.807114792
0.391147813,0.550666392,9.785401344,0.349553436,9.807114792
0.393147646,0.543483794,9.783007622,0.351947635,9.804411247
0.395147646,0.543483794,9.787796021,0.347159237,9.80901856
0.397147646,0.526724398,9.790189743,0.347159237,9.810493022
0.399148779,0.526724398,9.780612946,0.356736064,9.801279957
0.401148779,0.531512797,9.771036148,0.361524463,9.79215774
0.403148712,0.524330199,9.783007622,0.359130263,9.803628656
0.405148712,0.524330199,9.773430824,0.349553436,9.793725534
0.407148678,0.51954174,9.780612946,0.361524463,9.801072041
0.409149511,0.512359142,9.775824547,0.366312861,9.79609323
0.411150344,0.529118598,9.768642426,0.368707061,9.789907365
0.41315031,0.543483794,9.768642426,0.366312861,9.790604403
0.415150276,0.550666392,9.759065628,0.37349546,9.781722459
0.417150242,0.521935999,9.761459351,0.37349546,9.782535699
0.419150208,0.509964943,9.756670952,0.366312861,9.776854168
0.421150174,0.521935999,9.751882553,0.363918662,9.772618242
0.423150174,0.526724398,9.754277229,0.354341865,9.774912839
0.425150207,0.507570744,9.754277229,0.356736064,9.773986543
0.42715024,0.507570744,9.754277229,0.356736064,9.773986543
0.429149373,0.507570744,9.754277229,0.356736064,9.773986543
0.431148539,0.490811348,9.754277229,0.349553436,9.772871003
0.433148505,0.474051923,9.754277229,0.339976639,9.771705767
0.435148538,0.464475125,9.766247749,0.33518824,9.783030379
0.437148571,0.459686726,9.771036148,0.320823014,9.78710308
0.439148571,0.469263524,9.751882553,0.313640416,9.768203105
0.441148537,0.471657723,9.756670952,0.313640416,9.77309876
0.443148503,0.488417149,9.766247749,0.323217243,9.783793528
0.445148469,0.481234551,9.756670952,0.328005642,9.774037163
0.447148435,0.476446152,9.756670952,0.330399841,9.773883213
0.449149268,0.471657723,9.775824547,0.337582439,9.793016312
0.451150101,0.466869324,9.775824547,0.359130263,9.793553343
0.453150267,0.462080926,9.783007622,0.356736064,9.800409049
0.455150267,0.457292527,9.785401344,0.342370838,9.802061707
0.4571503,0.466869324,9.771036148,0.344765037,9.788257113
0.4591492,0.476446152,9.773430824,0.349553436,9.791278702
0.461149233,0.478840351,9.773430824,0.344765037,9.791225719
0.463149333,0.466869324,9.766247749,0.349553436,9.783647054
0.465149366,0.450109929,9.768642426,0.344765037,9.785082356
0.467149399,0.351947635,9.744700432,0.423773706,9.76025808
0.469148565,0.356736064,9.727940559,0.423773706,9.743699108
0.471147731,0.356736064,9.727940559,0.423773706,9.743699108
0.473147731,0.356736064,9.727940559,0.423773706,9.743699108
0.475147731,0.339976639,9.715970039,0.40940848,9.730533039
0.477147731,0.339976639,9.682451248,0.390254885,9.696274809
0.479147731,0.37110126,9.687239647,0.359130263,9.700994932
0.481147731,0.421379507,9.718363762,0.299275219,9.732097439
0.483147731,0.464475125,9.768642426,0.275333196,9.783553564
0.485147697,0.509964943,9.787796021,0.282515794,9.805143056
0.487147663,0.577002585,9.814131737,0.306457818,9.835854316
0.489148529,0.615309835,9.842862129,0.351947635,9.868353876
0.491149362,0.639251828,9.845256805,0.380678058,9.873329745
0.493149395,0.653617084,9.845256805,0.423773706,9.876025568
0.495149361,0.648828685,9.821314812,0.438138902,9.852470197
0.497149327,0.569819987,9.747094154,0.450109929,9.774105495
0.499149293,0.509964943,9.723152161,0.450109929,9.746914954
0.501149293,0.378283858,9.680056572,0.411802679,9.696193859
0.503148893,0.260968,9.658509254,0.37349546,9.669250445
0.505148926,0.198718742,9.668086052,0.361524463,9.67688364
0.507148959,0.153228909,9.756670952,0.397437483,9.765964556
0.509148125,0.153228909,9.756670952,0.397437483,9.765964556
0.511147258,0.153228909,9.756670952,0.397437483,9.765964556
0.513147291,0.181959331,9.771036148,0.395043284,9.780711416
0.515147324,0.272938997,9.809343338,0.414196909,9.821877188
0.517147324,0.323217243,9.82610321,0.421379507,9.84044381
0.51914729,0.426167905,9.845256805,0.430956304,9.86389497
0.521147256,0.502782345,9.883563995,0.416591108,9.905108555
0.523147222,0.541089594,9.885957718,0.395043284,9.908632456
0.525147188,0.59615624,9.8644104,0.354341865,9.888758919
0.527147154,0.648828685,9.845256805,0.318428814,9.87175046
0.52914772,0.663193882,9.845256805,0.325611442,9.872939304
0.531148153,0.687135875,9.821314812,0.380678058,9.852679642
0.533148153,0.687135875,9.794978142,0.375889659,9.826242697
0.535148186,0.687135875,9.763854027,0.359130263,9.794589104
0.537147886,0.665588081,9.739912033,0.361524463,9.769319006
0.539147919,0.644040287,9.708786964,0.33518824,9.735896639
0.541147952,0.641646028,9.711181641,0.265756398,9.735984026
0.543147985,0.67037648,9.696816444,0.217872351,9.722403105
0.545148018,0.814028561,9.656114578,0.253785372,9.693688579
0.547148051,0.339976639,9.732728958,-0.052672438,9.738807497
0.549147217,0.349553436,9.703998566,-0.122104287,9.711059943
0.551146317,0.349553436,9.703998566,-0.122104287,9.711059943
0.553146317,0.414196909,9.672874451,-0.045489833,9.681845307
0.555146317,0.459686726,9.684844971,0.138863698,9.696742604
0.557146317,0.543483794,9.761459351,0.718260527,9.802926169
0.559145917,0.543483794,9.859622002,0.70628953,9.89981644
0.561145917,0.541089594,9.90271759,0.646434486,9.938534659
0.563146317,0.399831682,9.943418503,0.48362875,9.963198967
0.565146283,0.359130263,9.960178375,0.378283858,9.973827073
0.567146249,0.438138902,9.929053307,0.234631762,9.941484664
0.569147082,0.481234551,9.909899712,0.189141929,9.923380153
0.571147948,0.545877993,9.847650528,0.227449164,9.86539086
0.573147914,0.577002585,9.787796021,0.318428814,9.809958197
0.57514788,0.567425787,9.749488831,0.359130263,9.772588144
0.577147846,0.553060591,9.680056572,0.380678058,9.703313199
0.579147846,0.51954174,9.656114578,0.423773706,9.679362403
0.581147846,0.493205547,9.665691376,0.471657723,9.689752447
0.583147879,0.442927301,9.627384186,0.407014281,9.646158379
0.585147912,0.435744703,9.644144058,0.354341865,9.660483747
0.587147945,0.397437483,9.802161217,0.488417149,9.822365926
0.589147378,0.397437483,9.802161217,0.488417149,9.822365926
0.591146944,0.397437483,9.802161217,0.488417149,9.822365926
0.593146977,0.397437483,9.802161217,0.488417149,9.822365926
0.595146977,0.414196909,9.869198799,0.395043284,9.885782883
0.597147277,0.514753342,9.895534515,0.29688102,9.913360313
0.599147243,0.474051923,9.878775597,0.378283858,9.897374965
0.601147209,0.474051923,9.852438927,0.423773706,9.872935844
0.603147175,0.509964943,9.799766541,0.390254885,9.82078344
0.605147141,0.507570744,9.783007622,0.383072257,9.803652918
0.607147107,0.486022949,9.766247749,0.433350503,9.787931654
0.60914794,0.452504128,9.749488831,0.433350503,9.769600048
0.61114884,0.430956304,9.735123634,0.414196909,9.753456546
0.613148873,0.428562105,9.732728958,0.390254885,9.749973196
0.615148906,0.423773706,9.680056572,0.337582439,9.69520713
0.617148939,0.433350503,9.656114578,0.275333196,9.66975438
0.619149372,0.44771573,9.648932457,0.256179571,9.662710536
0.621149405,0.44771573,9.656114578,0.289698392,9.670828469
0.623149438,0.414196909,9.677662849,0.418985307,9.695579714
0.625149471,0.399831682,9.694421768,0.438138902,9.712550875
0.627149504,0.354341865,9.744700432,0.318428814,9.756338533
0.629148637,0.354341865,9.744700432,0.318428814,9.756338533
0.63114777,0.354341865,9.744700432,0.318428814,9.756338533
0.63314777,0.395043284,9.756670952,0.320823014,9.76993422
0.63514777,0.426167905,9.811738014,0.313640416,9.825995739
0.63714777,0.48362875,9.828496933,0.318428814,9.845539378
0.63914777,0.521935999,9.830891609,0.325611442,9.850120295
0.64114777,0.555454791,9.82610321,0.354341865,9.848166961
0.643147736,0.574608386,9.797372818,0.375889659,9.821404277
0.645147302,0.581790984,9.792584419,0.390254885,9.817611177
0.647147268,0.63206923,9.804554939,0.40940848,9.833434007
0.649148501,0.639251828,9.792584419,0.423773706,9.822572813
0.651149334,0.644040287,9.787796021,0.418985307,9.817906473
0.6531493,0.620098233,9.806949615,0.299275219,9.831090898
0.655149266,0.603338838,9.828496933,0.280121595,9.850981566
0.657149266,0.579396784,9.847650528,0.275333196,9.868522175
0.659149266,0.577002585,9.83807373,0.356736064,9.861434344
0.661149299,0.529118598,9.857227325,0.282515794,9.875460101
0.663148432,0.526724398,9.873987198,0.198718742,9.890022796
0.665148465,0.486022949,9.900322914,0.20590134,9.914383868
0.667148498,0.598550439,9.747094154,0.526724398,9.779649568
0.669147664,0.598550439,9.747094154,0.526724398,9.779649568
0.67114683,0.598550439,9.747094154,0.526724398,9.779649568
0.67314683,0.600944638,9.699210167,0.586579442,9.735496277
0.675146396,0.387860686,9.689633369,0.574608386,9.714401965
0.677146362,0.347159237,9.670479774,0.507570744,9.690011696
0.679146328,0.349553436,9.615413666,0.495599747,9.634520573
0.681146294,0.201112941,9.646537781,0.284909993,9.652839545
0.68314626,0.234631762,9.639355659,0.229843363,9.644949848
0.685146693,0.318428814,9.682451248,0.282515794,9.691804489
0.687146659,0.469263524,9.672874451,0.354341865,9.690730961
0.689147525,0.579396784,9.648932457,0.462080926,9.677350721
0.691148391,0.474051923,9.732728958,0.292092621,9.748643818
0.693148391,0.402225882,9.799766541,0.105344877,9.808583356
0.695148391,0.749385119,9.763854027,0.397437483,9.800631616
0.697148391,0.703895271,9.730335236,0.457292527,9.766473714
0.699148391,0.636857629,9.751882553,0.325611442,9.778078737
0.701148391,0.679953277,9.790189743,0.306457818,9.818557331
0.703147991,0.63446343,9.811738014,0.29688102,9.836711089
0.705148391,0.622492433,9.82610321,0.270544797,9.849517532
0.707148424,0.548272193,9.895534515,0.270544797,9.914403675
0.70914719,0.548272193,9.895534515,0.270544797,9.914403675
0.711146356,0.548272193,9.895534515,0.270544797,9.914403675
0.713146389,0.586579442,9.893140793,0.299275219,9.915032821
0.715146422,0.653617084,9.859622002,0.361524463,9.887874455
0.717146455,0.639251828,9.799766541,0.440533102,9.830469804
0.719146488,0.545877993,9.771036148,0.395043284,9.794242665
0.721146488,0.524330199,9.749488831,0.40940848,9.772157895
0.723147354,0.418985307,9.780612946,0.339976639,9.795484796
0.725146554,0.505176544,9.737517357,0.246602774,9.753730596
0.72714652,0.526724398,9.732728958,0.263362199,9.750528766
0.729147353,0.533906996,9.730335236,0.292092621,9.749348623
0.731148186,0.521935999,9.713575363,0.414196909,9.736401933
0.733148152,0.435744703,9.689633369,0.452504128,9.709975709
0.735148552,0.399831682,9.682451248,0.435744703,9.700494884
0.737149018,0.37349546,9.648932457,0.411802679,9.664935482
0.739149051,0.361524463,9.663297653,0.383072257,9.677642576
0.741149084,0.347159237,9.680056572,0.380678058,9.693757298
0.743149117,0.359130263,9.713575363,0.385466486,9.727852039
0.745148683,0.347159237,9.723152161,0.440533102,9.739316038
0.747148716,0.402225882,9.794978142,0.268150598,9.806899979
0.749147882,0.402225882,9.794978142,0.268150598,9.806899979
0.751147048,0.402225882,9.794978142,0.268150598,9.806899979
0.753147081,0.399831682,9.797372818,0.292092621,9.809877553
0.755147081,0.430956304,9.787796021,0.354341865,9.803684635
0.757147081,0.421379507,9.785401344,0.37110126,9.801497656
0.759147081,0.430956304,9.775824547,0.399831682,9.793484277
0.761147081,0.430956304,9.771036148,0.414196909,9.789301805
0.763147481,0.440533102,9.766247749,0.414196909,9.784948829
0.765147481,0.430956304,9.751882553,0.385466486,9.769008193
0.767147447,0.442927301,9.756670952,0.368707061,9.773676767
0.769148313,0.442927301,9.747094154,0.351947635,9.763498153
0.771149146,0.452504128,9.747094154,0.354341865,9.764023894
0.773149112,0.44771573,9.739912033,0.359130263,9.756808409
0.775149078,0.464475125,9.730335236,0.363918662,9.748209976
0.777149044,0.457292527,9.706393242,0.383072257,9.724707223
0.77914901,0.452504128,9.711181641,0.37349546,9.728890363
0.781148976,0.450109929,9.737517357,0.363918662,9.754705532
0.783148976,0.478840351,9.763854027,0.351947635,9.781922136
0.785149776,0.48362875,9.763854027,0.339976639,9.781734322
0.787149809,0.524330199,9.756670952,0.363918662,9.777524585
0.789148975,0.524330199,9.756670952,0.363918662,9.777524585
0.791148141,0.524330199,9.756670952,0.363918662,9.777524585
0.793148174,0.526724398,9.763854027,0.349553436,9.784297198
0.795148207,0.536301196,9.756670952,0.37349546,9.778534956
0.797147773,0.536301196,9.773430824,0.366312861,9.794986175
0.799147773,0.541089594,9.778219223,0.354341865,9.799587097
0.801147739,0.548272193,9.778219223,0.337582439,9.799394648
0.803147705,0.548272193,9.785401344,0.29688102,9.805244526
0.805147671,0.567425787,9.797372818,0.292092621,9.818136496
0.807147637,0.603338838,9.787796021,0.299275219,9.810939524
0.80914847,0.617704034,9.785401344,0.292092621,9.809228096
0.811149303,0.624886632,9.790189743,0.287304193,9.814318224
0.813149269,0.644040287,9.818920135,0.306457818,9.844790344
0.815149269,0.703895271,9.785401344,0.359130263,9.817256367
0.817149302,0.708683729,9.783007622,0.395043284,9.816594621
0.819149335,0.677559078,9.783007622,0.395043284,9.814396753
0.821149368,0.615309835,9.706393242,0.533906996,9.740520142
0.823149401,0.500388145,9.713575363,0.51954174,9.74032126
0.825149434,0.476446152,9.756670952,0.349553436,9.774549432
0.827149467,0.258573771,9.723152161,0.392649084,9.734511885
0.8291486,0.258573771,9.723152161,0.392649084,9.734511885
0.831147766,0.258573771,9.723152161,0.392649084,9.734511885
0.833147766,0.232237563,9.720758438,0.402225882,9.731847952
0.835147766,0.217872351,9.699210167,0.404620081,9.710090815
0.837147766,0.220266551,9.680056572,0.416591108,9.691520043
0.839147766,0.375889659,9.672874451,0.423773706,9.689446699
0.841147766,0.452504128,9.682451248,0.311246216,9.698015074
0.843147766,0.474051923,9.703998566,0.284909993,9.719747275
0.845147732,0.529118598,9.742305756,0.251391172,9.759901918
0.847147698,0.608127236,9.775824547,0.244208574,9.79776516
0.849148531,0.620098233,9.787796021,0.239420176,9.810341216
0.851149364,0.660799682,9.797372818,0.258573771,9.82303572
0.85314933,0.735019922,9.802161217,0.318428814,9.834836842
0.855149296,0.78050977,9.785401344,0.344765037,9.822532153
0.857149262,0.768538773,9.830891609,0.361524463,9.86751142
0.859148895,0.682347477,9.866804123,0.359130263,9.896888209
0.859248895,0.639251828,9.833285332,0.383072257,9.861485064
0.861248928,0.624886632,9.823708534,0.378283858,9.850828967
0.863248961,0.605733037,9.783007622,0.366312861,9.808584799
0.865248994,0.44532153,9.761459351,0.359130263,9.778209164
0.86724816,0.423773706,9.761459351,0.347159237,9.776819132
0.869247326,0.423773706,9.761459351,0.347159237,9.776819132
0.871247892,0.407014281,9.747094154,0.351947635,9.76193486
0.873247925,0.402225882,9.727940559,0.368707061,9.743231398
0.875247925,0.378283858,9.718363762,0.397437483,9.733840426
0.877247891,0.390254885,9.701604843,0.40940848,9.71807855
0.879247857,0.375889659,9.723152161,0.385466486,9.738047309
0.881247823,0.356736064,9.751882553,0.356736064,9.764923685
0.883247789,0.421379507,9.747094154,0.361524463,9.762894298
0.885247755,0.464475125,9.756670952,0.366312861,9.774586964
0.887248588,0.493205547,9.766247749,0.380678058,9.78610048
0.889249421,0.500388145,9.802161217,0.363918662,9.82166939
0.891249421,0.471657723,9.821314812,0.421379507,9.841658718
0.893249454,0.474051923,9.821314812,0.418985307,9.841671532
0.895249487,0.51954174,9.830891609,0.342370838,9.850561976
0.89724952,0.505176544,9.8644104,0.301669419,9.881943145
0.899249553,0.486022949,9.859622002,0.320823014,9.876805745
0.901249586,0.471657723,9.857227325,0.37349546,9.875570384
0.903249619,0.476446152,9.852438927,0.366312861,9.870751686
0.905249652,0.433350503,9.814131737,0.37110126,9.830701427
0.907248818,0.433350503,9.814131737,0.37110126,9.830701427
0.909247951,0.433350503,9.814131737,0.37110126,9.830701427
0.911247851,0.426167905,9.799766541,0.366312861,9.815866159
0.913247851,0.404620081,9.768642426,0.378283858,9.784333954
0.915247851,0.395043284,9.756670952,0.359130263,9.771267154
0.917247851,0.395043284,9.747094154,0.359130263,9.761704677
0.919247851,0.392649084,9.720758438,0.356736064,9.7352236
0.921247817,0.402225882,9.701604843,0.354341865,9.716402644
0.923247783,0.442927301,9.715970039,0.466869324,9.737259644
0.925247416,0.488417149,9.735123634,0.493205547,9.759837867
0.927248249,0.421379507,9.768642426,0.320823014,9.782988446
0.929249082,0.397437483,9.783007622,0.299275219,9.795650072
0.931248515,0.430956304,9.783007622,0.29688102,9.796994427
0.933248481,0.387860686,9.771036148,0.318428814,9.783914361
0.935248447,0.378283858,9.806949615,0.306457818,9.819026216
0.937248447,0.385466486,9.818920135,0.313640416,9.831487545
0.93924848,0.469263524,9.742305756,0.368707061,9.760567329
0.941248513,0.526724398,9.730335236,0.507570744,9.757791269
0.943248546,0.44771573,9.785401344,0.452504128,9.806084276
0.945248579,0.462080926,9.859622002,0.347159237,9.876547187
0.947247745,0.488417149,9.871592522,0.349553436,9.88984721
0.949246911,0.488417149,9.871592522,0.349553436,9.88984721
0.951246944,0.488417149,9.871592522,0.349553436,9.88984721
0.953246944,0.545877993,9.87638092,0.342370838,9.897378474
0.95524691,0.572214186,9.878775597,0.380678058,9.902653793
0.957246476,0.586579442,9.871592522,0.392649084,9.896796838
0.959246442,0.675164878,9.783007622,0.430956304,9.81574292
0.961246042,0.656011283,9.730335236,0.426167905,9.76173108
0.963246008,0.600944638,9.780612946,0.395043284,9.807017041
0.965245974,0.555454791,9.859622002,0.282515794,9.879296089
0.967246807,0.524330199,9.91468811,0.299275219,9.933052307
0.969247673,0.517147541,9.933841705,0.325611442,9.952621535
0.971247806,0.55784899,9.957783699,0.37349546,9.980388297
0.973247839,0.586579442,9.950601578,0.383072257,9.97523391
0.975247872,0.598550439,9.943418503,0.395043284,9.969247381
0.977248238,0.579396784,9.94102478,0.433350503,9.967319949
0.979248271,0.543483794,9.933841705,0.442927301,9.958552618
0.981248304,0.541089594,9.931447983,0.440533102,9.955928204
0.983248337,0.533906996,9.885957718,0.395043284,9.908242825
0.985248703,0.44771573,9.739912033,0.280121595,9.754219799
0.987247836,0.44771573,9.739912033,0.280121595,9.754219799
0.989246969,0.44771573,9.739912033,0.280121595,9.754219799
0.991246669,0.430956304,9.718363762,0.277727395,9.731878033
0.993246669,0.426167905,9.660902977,0.284909993,9.674494256
0.995246669,0.469263524,9.565135002,0.258573771,9.58012924
0.997246669,0.411802679,9.49809742,0.191536129,9.508949581
0.999246635,0.809240162,8.945036888,0.282515794,8.986009667
1.001246601,0.605733037,9.091083527,0.464475125,9.123072363
1.003246801,0.256179571,9.56274128,0.287304193,9.570485487
1.005246767,0.138863698,9.82610321,0.239420176,9.830000481
1.0072476,0.1316811,9.962572098,0.313640416,9.968377653
1.009248433,0.234631762,9.988908768,0.474051923,10.00290336
1.011248399,0.359130263,9.897929192,0.457292527,9.914993358
1.013248365,0.339976639,10.01524544,0.435744703,10.03048347
1.015248365,0.507570744,10.02003384,0.418985307,10.0416261
1.017248798,0.421379507,10.07509995,0.179565132,10.08550659
1.019248831,0.390254885,10.07749462,0.29688102,10.08941698
1.021249231,0.495599747,10.10383034,0.344765037,10.12185109
1.023249231,0.292092621,10.1636858,0.258573771,10.17116943
1.025249264,0.399831682,10.09185982,0.402225882,10.10778342
1.02724843,0.502782345,10.09185982,0.459686726,10.11482756
1.029247596,0.502782345,10.01524544,0.459686726,10.03838847
1.031247596,0.794874966,9.754277229,0.464475125,9.797626632
1.033247562,1.283292055,9.141361237,0.366312861,9.238263304
1.035247528,1.055842996,8.978555679,0.600944638,9.060375322
1.037247094,1.106121182,8.966584206,0.019153614,9.034572665
1.03924706,0.871489406,9.141361237,0.04070143,9.182899087
1.041247026,0.272938997,9.632172585,0.069431849,9.636288973
1.043246992,0.076614454,9.912294388,0.603338838,9.930934878
1.045246958,0.007182605,10.15171432,0.572214186,10.16783086
1.047247824,-0.124498487,10.22354031,0.533906996,10.23822899
1.049248724,0.081402861,10.29536629,0.555454791,10.31066067
1.051249057,0.323217243,10.31451988,0.44771573,10.32929035
1.05324909,0.430956304,10.28818417,0.395043284,10.30478122
1.055248823,0.567425787,10.2618475,0.272938997,10.28114691
1.057248856,0.718260527,10.09185982,0.174776718,10.11889716
1.059248889,1.307234168,9.435848236,0.10295067,9.526525702
1.061248922,1.156399369,8.612242699,0.37110126,8.697453647
1.063248722,0.974440098,8.609848976,0.222660765,8.6676762
1.065248722,1.053448796,8.830115318,0.699106872,8.920170476
1.067247855,1.053448796,8.830115318,0.699106872,8.920170476
1.069246955,1.053448796,8.830115318,0.699106872,8.920170476
1.071246955,1.053448796,8.830115318,0.699106872,8.920170476
1.073246955,0.768538773,9.062353134,0.440533102,9.10554587
1.075246955,0.244208574,9.56274128,0.067037649,9.566093908
1.077246921,0.069431849,9.921871185,0.019153614,9.922132606
1.079246887,0.04070143,10.47972012,0.272938997,10.4833528
1.081246853,0.385466486,10.59703636,0.478840351,10.61485055
1.083246853,1.221042871,10.51563358,0.560243189,10.6011022
1.085246819,1.592144132,9.397541046,0.821211159,9.56677001
1.087247652,0.802057564,9.756670952,0.33518824,9.795319063
1.089248485,0.033518825,10.20438671,0.002394202,10.20444204
1.091248451,-0.20350714,10.5371809,0.086191259,10.53949835
1.093248451,-0.234631762,10.76463032,0.397437483,10.77451969
1.095248484,0.098162271,10.58985329,0.617704034,10.60830744
1.097248917,0.732625723,9.931447983,0.660799682,9.980333447
1.09924895,1.029506683,9.397541046,0.948103845,9.501187432
1.101248983,0.287304193,9.627384186,0.189141929,9.633527113
1.103249016,-0.100556471,9.871592522,-0.04070143,9.872188568
1.105249049,0.993593693,9.445425034,0.469263524,9.509126708
1.107248215,0.993593693,9.445425034,0.469263524,9.509126708
1.109247315,0.993593693,9.445425034,0.469263524,9.509126708
1.111247281,0.725443125,9.510068893,0.067037649,9.537933326
1.113247247,0.002394202,10.03679276,0,10.03679304
1.115247513,0.287304193,10.22593498,0.275333196,10.23367472
1.117247479,1.036689281,9.775824547,0.74220252,9.858617287
1.119247445,1.307234168,9.577106476,0.763750315,9.69603755
1.121247411,0.478840351,10.00566864,0.220266551,10.01954143
1.123247377,0.038307227,10.29297256,0.004788403,10.29304496
1.125247377,1.41257906,10.00088024,1.010353088,10.15055656
1.127248277,1.297657371,9.742305756,0.758961916,9.857609207
1.12924921,1.012747288,9.859622002,0.263362199,9.91499686
1.131249243,0.031124622,10.33127975,-0.165199921,10.33264734
1.133249276,0.636857629,10.24030018,0.457292527,10.27027029
1.135249309,1.091755986,9.981725693,1.103726983,10.10173214
1.137249342,1.309628367,9.751882553,0.605733037,9.858055199
1.139249375,0.277727395,10.22593498,0.150834709,10.23081765
1.141249408,-0.196324542,10.43183613,-0.160411507,10.4349164
1.143249408,0.383072257,10.21635818,0.457292527,10.23375959
1.145249408,-0.193930343,10.27621269,-0.201112941,10.28000986
1.147248541,-0.193930343,10.27621269,-0.201112941,10.28000986
1.149247674,-0.193930343,10.27621269,-0.201112941,10.28000986
1.151247674,-0.514753342,10.41268253,-0.20590134,10.42743132
1.153247674,0.533906996,9.929053307,0.828393817,9.977845086
1.15524764,0.986411095,9.739912033,1.26653266,9.871322011
1.157247606,1.204283476,9.56274128,0.497993946,9.651130371
1.159247572,0.160411507,9.804554939,-0.20590134,9.808028587
1.161247538,-0.387860686,9.917082787,-0.435744703,9.934225705
1.163247504,-0.536301196,10.02482224,0.100556471,10.03966092
1.16524747,0.399831682,9.785401344,0.984016895,9.842877328
1.167248303,0.392649084,9.809343338,0.895431459,9.857950473
1.169249169,0.270544797,9.727940559,0.239420176,9.73464658
1.171249169,0.830788016,9.323320389,0.239420176,9.363323866
1.173249202,0.440533102,9.452607155,0.18674773,9.464709512
1.175249235,-0.158017308,9.455001831,-0.105344877,9.456908937
1.177249268,0.476446152,9.134179115,0.787692368,9.180451422
1.179249301,0.423773706,9.119813919,0.852335811,9.169354743
1.181249334,0.466869324,8.877999306,0.031124622,8.890320994
1.183249367,0.976834297,8.72237587,0.02873042,8.77695115
1.1852494,0.517147541,9.486125946,0.92895025,9.545521233
1.187248533,0.517147541,9.486125946,0.92895025,9.545521233
1.189247633,0.517147541,9.486125946,0.92895025,9.545521233
1.191247599,0.778115571,9.431059837,1.168370485,9.534958998
1.193247565,0.730231524,9.478943825,0.993593693,9.558809682
1.195247531,0.945709646,9.474155426,0.112527482,9.521903707
1.197247497,1.144428372,9.340080261,-0.02873042,9.409975612
1.199247463,0.577002585,9.603442192,-0.071826048,9.621028682
1.201247429,-0.37110126,10.11580181,-0.169988319,10.1240337
1.203247429,-0.450109929,10.5419693,0.275333196,10.55516575
1.205247462,-0.011971008,10.60900688,0.773327172,10.63716152
1.207248362,0.318428814,10.39831734,1.194706678,10.47156743
1.209249262,0.732625723,10.12298393,1.072602391,10.20597962
1.211249295,0.797269166,10.05834103,0.282515794,10.09384354
1.213249328,0.902614057,9.938630104,-0.497993946,9.991950683
1.215249361,1.388636947,9.447818756,0.095768064,9.549804361
1.217249394,0.251391172,9.897929192,-0.086191259,9.901496288
1.219249427,-0.146046311,10.00088024,-0.177170932,10.00351562
1.221249427,0.105344877,10.00806236,0.696712673,10.032837
1.223249427,0.263362199,9.890746117,0.9648633,9.941186025
1.225249427,0.574608386,9.478943825,-0.210689753,9.498681014
1.22724856,0.574608386,9.478943825,-0.210689753,9.498681014
1.229247693,0.574608386,9.478943825,-0.210689753,9.498681014
1.231247693,0.660799682,9.251494408,-0.117315881,9.275805518
1.233247659,-1.086967587,9.378387451,0.615309835,9.461197383
1.235247625,-2.272097349,10.07270622,-0.081402861,10.32610592
1.237247591,-2.138022184,10.33127975,-0.117315881,10.55084088
1.239247557,-1.26653266,10.65928555,0.023942016,10.73429302
1.241247523,-0.354341865,10.64731407,0.275333196,10.65676609
1.243247489,0.088585466,10.5228157,0.359130263,10.5293149
1.245247455,0.488417149,10.13734913,0.569819987,10.16509191
1.247248288,0.548272193,10.08946514,0.505176544,10.11697151
1.249249154,0.584185243,9.895534515,0.648828685,9.933974754
1.251249154,0.811634362,9.462183952,0.339976639,9.503013185
1.253249187,1.340752959,9.107842445,-0.258573771,9.209629357
1.25524922,1.479616642,8.959402084,-0.169988319,9.082348107
1.257249253,1.367089152,8.971372604,0.069431849,9.075201372
1.259249286,1.113303781,8.866027832,0.538695395,8.951876203
1.261249319,1.070208192,8.866027832,0.732625723,8.96038702
1.263249352,0.830788016,8.887576103,0.732625723,8.956336202
1.265249352,1.467645645,9.541193008,0.414196909,9.662293043
1.267248452,1.467645645,9.541193008,0.414196909,9.662293043
1.269247552,1.467645645,9.541193008,0.414196909,9.662293043
1.271247518,1.453280449,9.5747118,0.430956304,9.693959637
1.273247484,1.108515382,9.60104847,0.428562105,9.674327033
1.27524745,0.301669419,9.814131737,0.289698392,9.823039822
1.277247416,0.035913024,9.878775597,0.225054964,9.881404089
1.279247382,-0.114921682,9.998485565,0.344765037,10.00508788
1.281247382,0.33279404,9.955389977,0.294486821,9.965303003
1.283247415,0.749385119,9.854833603,0.10295067,9.883821237
1.285247448,1.012747288,9.763854027,0.076614454,9.816535657
1.287248348,0.629675031,9.804554939,0.251391172,9.827969563
1.289249248,0.325611442,9.835680008,0.404620081,9.849382795
1.291249281,-0.047884032,9.895534515,0.567425787,9.911905379
1.293249314,-0.258573771,9.921871185,0.59376204,9.942984541
1.295249347,-0.397437483,9.933841705,0.555454791,9.957293689
1.29724938,-0.63446343,9.943418503,0.464475125,9.974460011
1.29924938,-0.679953277,9.87638092,0.361524463,9.906358386
1.30124938,-0.555454791,9.756670952,0.301669419,9.777124451
1.30324938,-0.215478152,9.548376083,0.311246216,9.555877295
1.30524938,0.895431459,9.773430824,0.227449164,9.816999577
1.307248513,0.895431459,9.773430824,0.227449164,9.816999577
1.309247646,0.895431459,9.773430824,0.227449164,9.816999577
1.311247646,1.067813993,9.859622002,0.268150598,9.920901042
1.313247612,1.165976286,9.938630104,0.268150598,10.0103833
1.315247578,1.18991828,10.06073475,0.268150598,10.13440644
1.317247544,1.086967587,10.18762779,0.215478152,10.2477163
1.31924751,0.940921247,10.32649136,0.158017308,10.37047376
1.321247476,0.883460403,10.36240387,0.143652096,10.40098804
1.323247442,0.845153213,10.37437534,0.158017308,10.40994319
1.325247408,0.93134445,10.28100109,0.196324542,10.32496631
1.327248274,1.00317049,10.21635818,0.251391172,10.26856967
1.32924914,1.206677675,10.03679276,0.37349546,10.11596652
1.331249173,1.297657371,9.790189743,0.469263524,9.886957981
1.333249206,1.391031146,9.696816444,0.466869324,9.807200608
1.335249239,1.628057122,9.483732224,0.416591108,9.631474188
1.337249272,2.398990154,8.973767281,0.507570744,9.302756636
1.339249305,3.517082214,8.734347343,0.351947635,9.422449679
1.341249338,4.010287762,8.68406868,-0.081402861,9.565672124
1.343249338,2.829946518,8.820538521,0.395043284,9.271815156
1.345249304,1.37427175,9.565135002,0.555454791,9.679305785
1.347248404,1.37427175,9.629778862,0.550666392,9.742920366
1.349247504,1.37427175,9.629778862,0.550666392,9.742920366
1.35124747,1.333570361,9.682451248,0.509964943,9.787151594
1.353247436,1.288080573,9.756670952,0.414196909,9.850042574
1.355247402,1.060631394,9.945813179,0.241814375,10.00512933
1.357247368,0.739808321,10.17086792,0.114921682,10.19838603
1.359247368,0.718260527,10.20438671,0.088585466,10.23001729
1.361247401,0.840364814,10.21156979,0.16759412,10.24746107
1.363247434,0.943315446,10.21875191,0.306457818,10.26677413
1.365247467,0.864306808,10.22593498,0.397437483,10.27008905
1.367248367,0.811634362,10.21156979,0.416591108,10.25224151
1.369249267,0.804451764,10.11819553,0.383072257,10.15735043
1.3712493,0.85473001,10.05355263,0.347159237,10.09579137
1.373249333,0.974440098,9.909899712,0.294486821,9.96204639
1.375249366,1.067813993,9.787796021,0.265756398,9.849457047
1.377249366,1.197100878,9.718363762,0.237025961,9.794683559
1.379249366,1.259350061,9.610625267,0.222660765,9.695342099
1.381249366,1.414973259,9.531616211,0.229843363,9.638811384
1.383249366,1.541865945,9.452607155,0.232237563,9.580347953
1.385249366,1.575384736,9.320926666,0.438138902,9.463269873
1.387248499,1.575384736,9.320926666,0.438138902,9.463269873
1.389247632,1.575384736,9.320926666,0.438138902,9.463269873
1.391247598,1.505952835,9.316138268,0.471657723,9.448851103
1.393247564,1.343147159,9.299378395,0.495599747,9.408937343
1.39524753,1.201889277,9.289801598,0.481234551,9.379580921
1.397247496,1.127668977,9.296984673,0.476446152,9.377236387
1.399247462,0.9672575,9.335291862,0.478840351,9.397475688
1.401247428,0.787692368,9.404723167,0.44771573,9.448265793
1.403247394,0.746990919,9.43345356,0.416591108,9.472148101
1.405247394,0.689530075,9.45979023,0.423773706,9.494349218
1.40724826,0.644040287,9.43345356,0.493205547,9.4682673
1.40924916,0.837970614,9.373599052,0.543483794,9.426660521
1.411249193,0.905008256,9.328108788,0.514753342,9.386033481
1.413249226,1.371877551,9.155726433,0.414196909,9.267196642
1.415249259,2.956839085,8.892364502,0.04309563,9.371173941
1.417249292,2.559401512,9.143755913,-0.241814375,9.498277869
1.419249325,0.414196909,9.313743591,0.924161851,9.368642052
1.421249325,-0.840364814,9.670479774,0.816422761,9.741197987
1.423249291,-0.814028561,9.816526413,0.586579442,9.867669875
1.425249257,0.198718742,10.13016701,0.035913024,10.13217955
1.427248357,0.198718742,10.18523312,0.035913024,10.18723478
1.429247457,0.198718742,10.18523312,0.035913024,10.18723478
1.43124659,0.198718742,10.18523312,0.035913024,10.18723478
1.433246556,0.047884032,10.26424217,0.035913024,10.26441669
1.435246522,0.208295554,10.18523312,0.155623108,10.18855138
1.437246522,0.344765037,10.1493206,0.20350714,10.15721353
1.439246522,0.689530075,10.05355263,0.342370838,10.08298517
1.441246522,0.857124209,10.00566864,0.414196909,10.050852
1.443246522,1.199495077,9.897929192,0.481234551,9.981952585
1.445246522,1.589749932,9.761459351,0.435744703,9.899659941
1.447247388,1.8579005,9.658509254,0.308852017,9.840426051
1.449248254,1.975216389,9.605836868,0.244208574,9.809853187
1.451248254,2.178723574,9.550769806,0.179565132,9.797769335
1.453248254,2.284068346,9.534010887,0.16759412,9.805224097
1.455248287,2.310404539,9.53640461,0.153228909,9.813483638
1.45724792,2.288856745,9.569923401,0.20590134,9.841986307
1.459247953,2.26970315,9.593865395,0.265756398,9.862273169
1.461247986,2.248155355,9.608230591,0.304063618,9.87242383
1.463248019,2.130839586,9.639355659,0.339976639,9.877916733
1.465248052,1.67115283,9.799766541,0.287304193,9.945386857
1.467247218,1.568202138,9.828496933,0.277727395,9.956693347
1.469246351,1.568202138,9.828496933,0.277727395,9.956693347
1.471246317,1.474828243,9.859622002,0.282515794,9.973318381
1.473246283,1.383848548,9.890746117,0.277727395,9.990947305
1.475246249,1.175553083,9.967360497,0.241814375,10.03935628
1.477246215,0.976834297,10.01524544,0.241814375,10.06567537
1.479246181,0.861912608,10.02242756,0.263362199,10.06286774
1.481246147,0.835576415,10.02242756,0.289698392,10.06137005
1.483246147,0.804451764,9.984120369,0.385466486,10.02389079
1.485246147,0.677559078,9.993697166,0.354341865,10.02290514
1.487247047,0.545877993,10.01045704,0.323217243,10.03053848
1.489247947,0.438138902,10.02961063,0.29688102,10.04356478
1.491248813,0.562637389,9.988908768,0.272938997,10.00846416
1.493248846,0.565031588,9.976937294,0.263362199,9.996394256
1.495248879,0.414196909,10.02242756,0.198718742,10.03295083
1.497248912,0.263362199,10.05594635,0.158017308,10.06063547
1.499248945,0.246602774,10.05594635,0.150834709,10.06010045
1.501248978,0.301669419,10.02242756,0.18435353,10.02866117
1.503248978,0.294486821,9.97933197,0.304063618,9.988305349
1.505248978,-0.306457818,9.739912033,0.751779318,9.773687889
1.507248111,-0.306457818,9.739912033,0.751779318,9.773687889
1.509247244,-0.474051923,9.703998566,0.797269166,9.748228122
1.511247244,-0.665588081,9.675268173,0.837970614,9.734270207
1.513247244,-0.969651699,9.756670952,0.861912608,9.84254773
1.51524721,-1.592144132,9.888352394,0.782903969,10.04626172
1.517247576,-1.699883223,9.696816444,0.617704034,9.86404635
1.519247542,-1.714248419,9.596260071,0.481234551,9.760043119
1.521247508,-1.312022567,9.428665161,0.442927301,9.529811883
1.523247474,-0.89303726,9.256282806,0.600944638,9.31865985
1.52524744,-0.74220252,9.208398819,0.591367841,9.257169617
1.527248273,-0.316034615,9.004891396,0.572214186,9.0285866
1.529249106,1.690306425,8.447042465,0.423773706,8.624920079
1.531249106,3.078943491,8.188468933,0.442927301,8.759400726
1.533249139,5.660192013,7.850886822,-0.114921682,9.679225408
1.535249172,1.601720929,8.317755699,1.661576033,8.631998883
1.537249205,-0.694318473,8.820538521,1.74776721,9.018795272
1.539249238,-2.664746523,9.677662849,0.751779318,10.0659428
1.541249271,-2.85867691,10.20678139,0.174776718,10.60098896
1.543249304,-2.487575531,10.50366211,0.04070143,10.79428582
1.545249337,0.881066203,10.68322754,-0.241814375,10.7222247
1.54724847,1.503558636,10.67604446,-0.141257897,10.78232664
1.54924757,1.503558636,10.67604446,-0.141257897,10.78232664
1.551247536,1.503558636,10.67604446,-0.141257897,10.78232664
1.553247502,1.848323703,10.73111153,0.191536129,10.89080994
1.555248602,1.939303398,10.8173027,0.117315881,10.99039119
1.557248568,2.042253971,10.8508215,0.019153614,11.04135387
1.559248534,2.04704237,10.9058876,-0.100556471,11.09679587
1.5612485,2.274491549,10.75505352,-0.313640416,10.99740234
1.5632485,2.552218914,10.60900688,-0.459686726,10.92136257
1.565248533,3.308786631,10.27142429,-0.342370838,10.79664039
1.567249433,3.023876667,10.25945377,0.086191259,10.69615121
1.569250333,2.205059767,10.41028786,0.40940848,10.64913129
1.571250366,1.383848548,10.66167927,0.44771573,10.76043173
1.573250399,1.503558636,10.49647999,0.181959331,10.60518222
1.575250432,2.71263051,9.174880028,-0.474051923,9.579222987
1.577250465,3.811569214,8.650549889,-0.67037648,9.476786263
1.579250498,3.732560396,9.296984673,0.292092621,10.02253706
1.581250498,1.731007814,10.01285076,1.37666595,10.2542078
1.583250498,0.775721371,10.10622501,1.259350061,10.21388713
1.585250498,-0.940921247,10.67365074,-0.308852017,10.71949358
1.587249631,-0.940921247,10.67365074,-0.308852017,10.71949358
1.589248764,-0.940921247,10.67365074,-0.308852017,10.71949358
1.591248764,-0.493205547,10.57788277,-0.469263524,10.59976716
1.59324873,0.507570744,10.2283287,-0.533906996,10.25482291
1.595248696,1.216254473,10.04158115,-0.416591108,10.12354558
1.597248662,1.424550056,9.579500198,-0.201112941,9.686930026
1.599248628,1.771709204,9.141361237,0.055066638,9.311630958
1.601248594,1.982398987,8.911518097,0.229843363,9.13224444
1.60324856,2.643198729,8.456619263,0.677559078,8.885943685
1.605248526,3.066972494,8.111854553,1.072602391,8.738362573
1.607249592,3.038241863,8.001721382,1.204283476,8.643422782
1.609250458,2.880224705,7.85567522,1.074996591,8.43581325
1.611250491,2.602497339,7.826944828,0.727837324,8.280326377
1.613250524,2.300827742,7.865252018,0.423773706,8.205826086
1.615249424,1.944091797,7.946654797,0.282515794,8.185879949
1.617249057,0.751779318,8.358457565,0.1316811,8.393230899
1.61924909,0.117315881,8.734347343,0.289698392,8.739937739
1.621249123,0.241814375,8.813355446,0.361524463,8.824081161
1.623249156,1.000776291,8.889969826,0.541089594,8.962471458
1.625249156,2.506729126,8.212410927,1.850717902,8.783651911
1.627248256,0.615309835,9.131784439,2.185906172,9.409903242
1.629247322,0.615309835,9.131784439,2.185906172,9.409903242
1.631247288,-0.74459672,9.773430824,1.958456993,9.995495393
1.633247254,-1.630451322,10.09904194,1.414973259,10.32720528
1.63524722,-2.142810583,10.43183613,0.524330199,10.66254024
1.637247186,-1.702277422,10.46296024,0.320823014,10.60538603
1.639247152,-0.974440098,10.50126839,0.107739076,10.54693221
1.641247152,-0.581790984,10.47972012,0.007182605,10.49585947
1.643247185,0.368707061,10.36479855,-0.019153614,10.37137217
1.645247218,0.984016895,10.14692593,0.093373865,10.19495531
1.647248118,1.297657371,10.06791782,0.222660765,10.15364278
1.649249018,1.659181833,10.00327396,0.603338838,10.1578734
1.651249051,1.678335428,9.921871185,0.792480767,10.09397659
1.653249084,1.549048543,9.866804123,0.806845963,10.02019837
1.655249117,1.273715258,9.677662849,0.615309835,9.780496663
1.65724915,1.204283476,9.488520622,-0.610521436,9.584104482
1.65924915,1.470039845,9.368810654,-0.924161851,9.528363203
1.66124915,2.853888512,8.964190483,-1.051054597,9.466050202
1.66324915,2.516305923,8.901941299,0.067037649,9.250991755
1.66524915,3.971980572,8.581118584,-0.136469498,9.456788553
1.66724805,3.971980572,8.581118584,-0.136469498,9.456788553
1.66924715,3.971980572,8.581118584,-0.136469498,9.456788553
1.671247116,4.46279192,8.581118584,0.035913024,9.672300534
1.673247082,4.718971729,8.516474724,0.14844051,9.737611128
1.675247048,4.240131378,8.64576149,0.469263524,9.640960227
1.677247414,3.258508444,9.071929932,0.617704034,9.659158775
1.67924738,2.949656487,9.31853199,0.574608386,9.791102422
1.681247346,3.069366693,9.732728958,0.320823014,10.21028659
1.683247312,3.462015629,10.06791782,0.143652096,10.64749536
1.685247278,3.60566783,10.2379055,0.038307227,10.85435475
1.687248144,3.804386616,10.5419693,-0.189141929,11.20902533
1.689249077,3.931279182,10.79575443,-0.237025961,11.49171228
1.69124911,3.964797974,10.88434029,-0.198718742,11.58567976
1.693249143,3.986345768,11.00405025,-0.172382519,11.70511813
1.695249176,3.916913986,11.06390572,-0.086191259,11.73710585
1.697249209,3.823540211,11.05432892,-0.011971008,11.69691373
1.699249242,3.562572241,10.97531986,0.110133275,11.53957089
1.701249275,3.220201254,10.81490803,0.225054964,11.28638921
1.703249275,2.877830505,10.70716953,0.275333196,11.09059043
1.705249241,2.073378563,9.909899712,0.287304193,10.12855146
1.707248341,2.073378563,9.909899712,0.287304193,10.12855146
1.709247441,2.073378563,9.909899712,0.287304193,10.12855146
1.711247407,1.927332401,9.799766541,0.339976639,9.993278669
1.713247373,1.687912226,9.555558205,0.500388145,9.716384543
1.715247339,1.838746905,9.246706009,0.541089594,9.443269569
1.717247305,1.589749932,9.208398819,0.646434486,9.366952076
1.719247305,0.995987892,9.177274704,0.864306808,9.271536503
1.721247338,0.938527048,9.071929932,0.763750315,9.15227077
1.723247371,0.979228497,9.026439667,0.687135875,9.1053642
1.725247404,0.9672575,8.990526199,0.691924274,9.068842683
1.727248304,0.93134445,9.009679794,0.66798228,9.082286761
1.729249237,0.864306808,9.045593262,0.651222885,9.110097418
1.73124927,0.785298169,9.134179115,0.627280831,9.189309145
1.733249303,0.905008256,9.208398819,0.581790984,9.271037132
1.735249336,1.170764685,9.237129211,0.505176544,9.324722481
1.737249336,1.362300754,9.244312286,0.466869324,9.35580782
1.739249336,1.680729628,9.270648003,0.466869324,9.433330983
1.741249336,2.130839586,9.256282806,0.524330199,9.512842419
1.743249336,2.619256735,9.201216698,0.497993946,9.57971255
1.745249336,-0.095768064,9.490914345,1.137245774,9.5592863
1.747248469,-0.095768064,9.490914345,1.137245774,9.5592863
1.749247569,-0.095768064,9.490914345,1.137245774,9.5592863
1.751247535,-0.37110126,9.627384186,0.646434486,9.656195936
1.753247401,0.380678058,9.723152161,0.119710088,9.731337741
1.755247367,0.998382092,9.759065628,0.107739076,9.810593073
1.757247333,2.142810583,9.814131737,0.134075299,10.04623288
1.759247299,2.873042107,9.823708534,0.160411507,10.23647167
1.761247265,3.052607059,9.82610321,0.256179571,10.29253818
1.763247231,3.148375273,9.821314812,0.44532153,10.32321669
1.765247231,3.052607059,9.816526413,0.48362875,10.2915741
1.767248131,2.995146275,9.816526413,0.452504128,10.27325907
1.769249031,2.837129116,9.814131737,0.40940848,10.22419183
1.771249064,2.619256735,9.814131737,0.450109929,10.16760968
1.773249097,2.410961151,9.790189743,0.509964943,10.09557394
1.77524913,2.324769735,9.778219223,0.524330199,10.06444473
1.777249163,2.145204782,9.692028046,0.512359142,9.939810013
1.779249196,2.032677174,9.603442192,0.488417149,9.828348271
1.781249196,1.984793186,9.560346603,0.476446152,9.775818743
1.783249162,1.865083098,9.510068893,0.459686726,9.702126427
1.785249128,1.343147159,9.627384186,0.435744703,9.730387659
1.787248228,1.343147159,9.627384186,0.435744703,9.730387659
1.789247328,1.343147159,9.627384186,0.435744703,9.730387659
1.791247294,1.271321058,9.680056572,0.411802679,9.771864403
1.79324726,1.192312479,9.735123634,0.387860686,9.815532443
1.795247226,1.103726983,9.873987198,0.311246216,9.940357672
1.797247226,1.103726983,9.993697166,0.246602774,10.05748523
1.799247259,1.127668977,10.04636955,0.208295554,10.11160549
1.801247292,1.211466074,10.13256073,0.179565132,10.20630592
1.803247325,1.352723956,10.17086792,0.169988319,10.26183767
1.805247358,1.513135433,10.16607952,0.189141929,10.27981159
1.807248258,1.59693253,10.16607952,0.220266551,10.29309884
1.809249158,1.774103403,10.10143661,0.287304193,10.26006863
1.811249191,2.068590164,9.921871185,0.301669419,10.13970402
1.813249324,2.135627985,9.866804123,0.356736064,10.10158359
1.815249324,2.138022184,9.778219223,0.51954174,10.0227059
1.817249324,2.279279947,9.603442192,0.495599747,9.882653395
1.819249324,2.348711967,9.53640461,0.471657723,9.832696568
1.821249324,2.461239338,9.440636635,0.481234551,9.768055377
1.823249324,2.547430515,9.354445457,0.502782345,9.708132783
1.825249324,2.573766708,9.246706009,0.531512797,9.612926346
1.827248424,2.573766708,9.246706009,0.531512797,9.612926346
1.829247524,2.573766708,9.246706009,0.531512797,9.612926346
1.83124749,2.56658411,9.265859604,0.524330199,9.629040988
1.833247456,2.554613113,9.313743591,0.51954174,9.671700547
1.835247422,2.580949545,9.371204376,0.509964943,9.733490446
1.837247388,2.67432332,9.452607155,0.488417149,9.835768326
1.839247354,2.698265314,9.507674217,0.466869324,9.894163517
1.84124732,2.71263051,9.646537781,0.464475125,10.0314402
1.84324732,2.707842112,9.773430824,0.462080926,10.15213661
1.845247353,2.683900118,9.871592522,0.495599747,10.24193721
1.847248253,2.693476915,9.90271759,0.605733037,10.28034757
1.849249153,2.482787132,9.943418503,0.560243189,10.26399902
1.851249186,2.303221941,9.924264908,0.569819987,10.20394826
1.853249219,2.020706177,9.890746117,0.545877993,10.10980193
1.855249252,1.936909199,9.862015724,0.512359142,10.06347272
1.857249285,1.934514999,9.821314812,0.488417149,10.02193216
1.859249285,1.980004787,9.780612946,0.464475125,9.989822105
1.861249251,2.051830769,9.754277229,0.459686726,9.978338822
1.863249217,2.097320795,9.737517357,0.457292527,9.97131462
1.865249183,1.702277422,9.675268173,0.59615624,9.841949243
1.867248283,1.702277422,9.675268173,0.59615624,9.841949243
1.869247383,1.702277422,9.675268173,0.59615624,9.841949243
1.871247349,1.544260144,9.687239647,0.603338838,9.828090818
1.873247315,1.26653266,9.732728958,0.603338838,9.833317635
1.875247315,1.000776291,9.792584419,0.548272193,9.858847052
1.877247348,0.864306808,9.828496933,0.509964943,9.879597282
1.879247114,0.603338838,9.873987198,0.387860686,9.900003881
1.881247147,0.33279404,9.840468407,0.20350714,9.848197068
1.88324718,0.196324542,9.799766541,0.1316811,9.802617379
1.88524768,-0.079008654,9.720758438,0.110133275,9.721703365
1.88724858,-0.323217243,9.589076996,0.18435353,9.596293724
1.88924948,-0.351947635,9.52443409,0.237025961,9.533881328
1.891249513,-0.363918662,9.409511566,0.292092621,9.421075459
1.893249513,-0.450109929,9.249100685,0.227449164,9.262839497
1.895249513,-0.63206923,9.158121109,0.169988319,9.181480806
1.897249513,-0.732625723,9.131784439,0.172382519,9.162747581
1.899249513,-1.036689281,9.129390717,0.229843363,9.190937248
1.901249513,-1.201889277,9.146149635,0.263362199,9.228540005
1.903249513,-1.182735682,9.150938034,0.244208574,9.230285392
1.905249479,-0.486022949,9.263465881,0.035913024,9.276276634
1.907248579,-0.486022949,9.263465881,0.035913024,9.276276634
1.909247679,-0.486022949,9.263465881,0.035913024,9.276276634
1.911247645,-0.354341865,9.30656147,0.047884032,9.313427803
1.913247611,-0.021547815,9.407117844,0.090979666,9.407582459
1.915247577,0.136469498,9.440636635,0.107739076,9.442237643
1.917247543,0.390254885,9.478943825,0.155623108,9.488250284
1.919247509,0.63206923,9.502885818,0.220266551,9.526429958
1.921247509,0.797269166,9.490914345,0.265756398,9.528049102
1.923247542,1.170764685,9.364022255,0.366312861,9.444034511
1.925247575,1.601720929,9.217975616,0.404620081,9.364843929
1.927248475,1.78368032,9.150938034,0.40940848,9.332137895
1.929249375,2.003946781,9.031228065,0.385466486,9.258912867
1.931249408,2.152387381,8.930671692,0.359130263,9.193402137
1.933249441,2.22900176,8.899546623,0.287304193,9.178939081
1.935249474,2.257732153,8.899546623,0.272938997,9.185520141
1.937249474,2.310404539,8.949825287,0.263362199,9.24698337
1.939249707,2.351106167,9.024045944,0.237025961,9.328305672
1.941249673,2.360682964,9.083900452,0.234631762,9.388563444
1.943249639,2.439691544,9.215581894,0.284909993,9.537306652
1.945249139,2.784456491,9.299378395,0.189141929,9.709140598
1.947248239,2.813186884,9.332897186,0.189141929,9.749500757
1.949247339,2.813186884,9.332897186,0.189141929,9.749500757
1.951247772,2.827552319,9.375992775,0.177170932,9.794676216
1.953247772,2.786850691,9.416694641,0.177170932,9.822019358
1.955247805,2.63841033,9.481337547,0.232237563,9.844333651
1.957247838,2.422932148,9.474155426,0.33279404,9.784731632
1.959247871,2.276885748,9.474155426,0.407014281,9.752409465
1.961247904,1.867477298,9.488520622,0.612915635,9.689951529
1.963247937,1.362300754,9.512462616,0.646434486,9.631234911
1.96524797,1.642422318,9.304166794,0.251391172,9.451363305
1.96724887,1.934514999,9.227552414,0.069431849,9.428408806
1.96924977,2.221819162,9.189245224,-0.062249243,9.454236254
1.97124977,2.233790159,9.35683918,0.241814375,9.6228235
1.97324977,2.202665567,9.45979023,0.469263524,9.724174775
1.97524977,2.063801765,9.632172585,0.849941611,9.887387277
1.97724977,1.833958507,9.763854027,0.9648633,9.981343118
1.97924977,1.769315004,9.773430824,0.897825658,9.972788806
1.98124977,1.680729628,9.840468407,0.677559078,10.00593608
1.983249736,1.582567334,10.00327396,0.572214186,10.14383746
1.985249702,1.551442742,10.39113426,0.560243189,10.52124129
1.987248802,1.551442742,10.39113426,0.560243189,10.52124129
1.989247902,1.551442742,10.39113426,0.560243189,10.52124129
1.991247935,1.534683347,10.45098972,0.59376204,10.57974445
1.993247901,1.503558636,10.49408531,0.548272193,10.61541886
1.995247867,1.474828243,10.49169159,0.430956304,10.60360477
1.997247833,1.355118155,10.49887371,0.430956304,10.59473538
1.999247833,1.328781962,10.47253704,0.395043284,10.56388909
2.001247833,1.216254473,10.37676907,0.311246216,10.45243921
2.003247866,1.019929886,10.33367348,0.387860686,10.39112604
2.005247899,0.950498104,10.30733776,0.430956304,10.36003773
2.007248799,0.794874966,10.2379055,0.452504128,10.27868159
2.009249699,0.63446343,10.13734913,0.476446152,10.16835248
2.011249265,0.548272193,10.10622501,0.512359142,10.13404649
2.013249298,0.375889659,10.03200436,0.574608386,10.05547509
2.015249298,0.33518824,9.929053307,0.442927301,9.944578187
2.017249264,0.301669419,9.897929192,0.418985307,9.911385141
2.01924923,0.277727395,9.897929192,0.354341865,9.908162945
2.021249196,0.227449164,9.917082787,0.308852017,9.924497654
2.023249162,0.181959331,9.931447983,0.308852017,9.937915164
2.025249128,0.416591108,9.850045204,0.44771573,9.869011503
2.027248228,0.509964943,9.802161217,0.44771573,9.825623549
2.029247328,0.509964943,9.802161217,0.44771573,9.825623549
2.031247794,0.509964943,9.802161217,0.44771573,9.825623549
2.033247794,0.699106872,9.677662849,0.435744703,9.712660917
2.035247794,0.861912608,9.545981407,0.363918662,9.591719927
2.037247794,0.945709646,9.478943825,0.325611442,9.531566796
2.039247794,1.022324085,9.34486866,0.263362199,9.404311589
2.041247794,0.883460403,9.227552414,0.280121595,9.273979402
2.043247794,0.912190855,9.179668427,0.270544797,9.228846031
2.045247794,1.096544385,9.134179115,0.248996973,9.203131923
2.04724866,1.331176162,9.141361237,0.292092621,9.242393269
2.04924956,1.45088625,9.158121109,0.33279404,9.278308306
2.051249526,1.678335428,9.249100685,0.361524463,9.407091646
2.053249559,1.8579005,9.330503464,0.385466486,9.521484841
2.055249592,1.951274395,9.38317585,0.421379507,9.593175777
2.057248758,1.980004787,9.49809742,0.399831682,9.710516924
2.059248791,2.042253971,9.5747118,0.311246216,9.795038618
2.061248824,2.080561161,9.593865395,0.280121595,9.820868397
2.063248824,2.056619167,9.668086052,0.222660765,9.88691803
2.06524879,1.687912226,9.792584419,0.292092621,9.941281376
2.06724789,1.687912226,9.792584419,0.292092621,9.941281376
2.06924699,1.687912226,9.792584419,0.292092621,9.941281376
2.071246956,1.697489023,9.761459351,0.330399841,9.91346164
2.073246922,1.752555609,9.694421768,0.426167905,9.860775003
2.075246888,1.78128612,9.65132618,0.486022949,9.826357187
2.077246888,1.877054095,9.526827812,0.572214186,9.726829356
2.079246888,1.786074519,9.522039413,0.584185243,9.705697769
2.081246921,1.702277422,9.519645691,0.591367841,9.688710875
2.083246954,1.496376038,9.514857292,0.588973641,9.649794842
2.085246987,1.22822547,9.505280495,0.529118598,9.598898977
2.087247887,1.125274777,9.488520622,0.471657723,9.56664664
2.08924862,0.993593693,9.483732224,0.414196909,9.544630134
2.091248053,0.969651699,9.43345356,0.433350503,9.493053415
2.093248086,0.907402456,9.43345356,0.493205547,9.48981965
2.095248086,0.751779318,9.440636635,0.562637389,9.487220512
2.097248086,0.691924274,9.392752647,0.517147541,9.432391164
2.099248086,0.644040287,9.392752647,0.474051923,9.42673408
2.101248086,0.615309835,9.39514637,0.44532153,9.425799317
2.103248086,0.591367841,9.397541046,0.359130263,9.422975548
2.105248086,0.766144514,9.308955193,0.222660765,9.343083111
2.107247219,0.823605359,9.253889084,0.201112941,9.292644154
2.109246319,0.823605359,9.253889084,0.201112941,9.292644154
2.111246519,0.883460403,9.196428299,0.189141929,9.240701835
2.113246485,0.948103845,9.107842445,0.172382519,9.158679525
2.115246451,1.051054597,8.877999306,0.153228909,8.94131235
2.117247284,1.127668977,8.870816231,0.225054964,8.945035923
2.11924725,1.132457376,8.892364502,0.232237563,8.96719245
2.121247216,1.036689281,8.889969826,0.330399841,8.956307957
2.123247182,1.034295082,8.854057312,0.454898328,8.925862966
2.125247182,1.106121182,8.753500938,0.486022949,8.836486918
2.127248082,1.254561663,8.679280281,0.462080926,8.781648475
2.129248982,1.70946002,8.365639687,0.471657723,8.551528631
2.131249015,2.212242365,8.078335762,0.493205547,8.390278701
2.133249048,2.224213362,8.092700958,0.40940848,8.402770328
2.135249081,2.068590164,8.336909294,0.220266551,8.592533922
2.137249114,2.691082716,8.195652008,-0.117315881,8.626957809
2.139249014,2.743755102,8.310573578,-0.220266551,8.754561246
2.141249014,1.74776721,9.047987938,0.129286885,9.21615381
2.14324898,1.194706678,9.591471672,0.1316811,9.666488131
2.145248946,7.618649006,7.56597662,1.000776291,10.78375482
2.147248046,7.618649006,7.56597662,1.000776291,10.78375482
2.149247312,7.618649006,7.56597662,1.000776291,10.78375482
2.151247378,7.618649006,7.56597662,1.000776291,10.78375482
2.153247344,6.100725174,9.359233856,2.145204782,11.37611575
2.155247344,1.817199111,10.41028786,1.422155857,10.6629655
2.157247344,0.287304193,10.5419693,0.794874966,10.57579721
2.159247377,-0.339976639,10.89391708,-0.253785372,10.90217504
2.16124741,-0.059855044,11.31050777,-0.488417149,11.32120665
2.163247443,-0.191536129,11.49725628,-0.476446152,11.50871796
2.165247076,-0.114921682,11.72949314,-0.438138902,11.7382359
2.167247976,0.423773706,11.77498341,0.033518825,11.78265428
2.169248876,1.699883223,11.00165653,0.378283858,11.13863313
2.171248676,2.71502471,10.24987698,0.397437483,10.61081023
2.173248676,6.064812183,7.144597054,-0.435744703,9.381742233
2.175248676,7.067982674,4.163516521,0.526724398,8.220017487
2.177248676,6.462249756,4.23294878,1.759738207,7.923080578
2.179248676,5.696105003,6.364087582,1.711854219,8.71077883
2.181248676,3.433285236,8.50450325,1.137245774,9.241609762
2.183248609,1.908178806,9.05038166,0.763750315,9.280833427
2.185248609,-1.628057122,9.572318077,0.201112941,9.711863352
2.187247709,-1.628057122,9.572318077,0.201112941,9.711863352
2.189246775,-1.628057122,9.572318077,0.201112941,9.711863352
2.191246741,-1.568202138,9.811738014,0.399831682,9.944311247
2.193246707,-1.467645645,10.48929691,0.794874966,10.6212598
2.195246673,-0.933738649,10.85800362,0.924161851,10.93719276
2.197246639,-0.509964943,10.88434029,0.926556051,10.93560395
2.199246739,0.984016895,10.50605679,0.785298169,10.58121976
2.201246705,2.913743496,9.519645691,0.74459672,9.983385173
2.203246705,3.004723072,9.308955193,0.672770679,9.80497975
2.205246738,2.56897831,10.17805099,-0.100556471,10.49773705
2.207247638,2.19308877,10.69040966,0.40940848,10.92071941
2.209248538,1.929726601,11.2195282,0.787692368,11.41149057
2.211248604,3.739742994,11.85159779,-0.464475125,12.43630913
2.213248637,5.743988991,12.28494835,-0.122104287,13.56201589
2.21524867,0.787692368,11.97130775,0.636857629,12.01408574
2.217248703,0.138863698,11.54514027,1.41257906,11.63206458
2.219248703,-2.334346771,10.25945377,1.620874524,10.64578794
2.221248669,-3.632004023,9.873987198,1.48679924,10.62533051
2.223248635,-4.92277813,10.63773727,1.527500629,11.82067921
2.225249001,4.431667328,11.62654305,-0.648828685,12.45942042
2.227248101,4.431667328,11.62654305,-0.648828685,12.45942042
2.229247201,4.431667328,11.62654305,-0.648828685,12.45942042
2.231247167,3.928884983,11.18361568,0.160411507,11.85475132
2.233247,-1.048660398,10.74308205,0.37110126,10.80051928
2.235247,-3.19865346,10.56112289,-0.110133275,11.0354352
2.237247033,-4.833893299,10.37198067,-0.739808321,11.46698843
2.239247066,-0.976834297,9.943418503,-1.103726983,10.05206397
2.241247099,1.012747288,9.823708534,-0.845153213,9.911871185
2.243247199,0.268150598,9.701604843,0.33518824,9.711096356
2.245247232,-0.047884032,9.593865395,0.086191259,9.594372049
2.247248132,1.051054597,9.629778862,-0.136469498,9.687929635
2.249249065,-0.20350714,10.06073475,0.51954174,10.07619583
2.251249098,-2.138022184,10.1684742,0.529118598,10.40427666
2.253249098,-2.387019157,10.2618475,0.201112941,10.5377332
2.255249098,-1.065419793,10.30733776,-0.29688102,10.3665071
2.257249098,0.162805721,10.47014332,0.007182605,10.47141148
2.259249098,-0.835576415,10.47014332,0.301669419,10.50776349
2.261249098,-1.209071875,10.41507626,0.20590134,10.48704265
2.263249098,-1.630451322,10.34564495,-0.076614454,10.47361498
2.265249064,-0.51954174,10.00566864,0.090979666,10.01956116
2.267248164,-0.51954174,10.00566864,0.090979666,10.01956116
2.269247264,-0.51954174,10.00566864,0.090979666,10.01956116
2.27124723,-0.079008654,9.960178375,0.169988319,9.961942163
2.273247196,0.55784899,9.883563995,0.124498487,9.900077405
2.275247162,5.739200592,9.16530323,-0.450109929,10.82329921
2.277247128,6.464643955,9.909899712,0.481234551,11.84184616
2.279247094,5.049670696,9.972148895,1.070208192,11.22890348
2.281247094,0.225054964,10.10383034,1.18752408,10.17586609
2.283247127,-3.500322819,9.715970039,0.696712673,10.35073631
2.28524716,-4.402936935,9.378387451,0.457292527,10.37058925
2.28724806,-4.441244125,9.287407875,0.577002585,10.31084509
2.28924896,-4.158728123,9.256282806,0.651222885,10.16847492
2.291248993,-3.002328873,9.287407875,0.51954174,9.774448696
2.293249193,-2.185906172,9.354445457,0.270544797,9.610256505
2.295249226,-0.718260527,9.443030357,0.208295554,9.472597719
2.297249226,0.316034615,9.557952881,0.339976639,9.569217589
2.299249192,0.620098233,9.670479774,0.486022949,9.70252128
2.301249158,0.809240162,9.866804123,0.608127236,9.918594254
2.303249124,0.622492433,10.00088024,0.768538773,10.04966439
2.30524909,0.509964943,9.8644104,0.562637389,9.893594778
2.30724819,0.509964943,9.8644104,0.562637389,9.893594778
2.30924729,0.509964943,9.8644104,0.562637389,9.893594778
2.311247256,0.639251828,9.840468407,0.555454791,9.876841164
2.313247256,0.825999558,9.97933197,0.493205547,10.02559692
2.315247289,0.778115571,10.22593498,0.023942016,10.25552453
2.317247322,0.81881696,10.30733776,-0.059855044,10.33998334
2.319247555,1.173158884,10.38874054,-0.105344877,10.45530149
2.321247588,1.771709204,10.34325027,-0.090979666,10.49428688
2.323247621,2.420537949,10.33606815,-0.055066638,10.61585329
2.325247654,2.901772499,10.35522175,0.248996973,10.7569931
2.327248554,3.038241863,10.31451988,0.344765037,10.75821068
2.329249454,3.27287364,10.19720459,0.450109929,10.71901499
2.331249454,3.466804028,10.13016701,0.404620081,10.71460364
2.333249454,8.176498413,9.100660324,-0.703895271,12.25449359
2.335249454,14.29368305,10.42944145,-0.342370838,17.69745298
2.337249454,10.28578949,10.73350525,0.974440098,14.89815874
2.339249454,1.44849205,10.20438671,1.987187386,10.49650185
2.341249454,-2.099714994,9.452607155,0.579396784,9.700324001
2.34324942,-2.559401512,9.148544312,0.158017308,9.501124596
2.345249386,0.548272193,9.210793495,0.464475125,9.238780025
2.347248486,0.548272193,9.210793495,0.464475125,9.238780025
2.349247586,0.548272193,9.210793495,0.464475125,9.238780025
2.351247552,0.871489406,9.43345356,0.344765037,9.479894661
2.353247018,1.290474772,9.893140793,0.351947635,9.983157167
2.355246984,1.426944256,10.28100109,0.469263524,10.39015696
2.35724695,1.446097851,10.42465305,0.505176544,10.53659307
2.35924695,1.403002143,10.61379528,0.462080926,10.71608996
2.361246983,1.295263171,10.59943008,0.486022949,10.68933315
2.363247016,1.290474772,10.5228157,0.543483794,10.61557112
2.365247049,1.45088625,10.33367348,0.684741676,10.45747339
2.367247949,1.836352706,10.1493206,0.756567717,10.3418226
2.369248849,2.027888775,10.06552315,0.751779318,10.29525431
2.371248882,2.425326347,9.976937294,0.730231524,10.2934311
2.373248915,2.614468336,9.909899712,0.691924274,10.27230822
2.375248915,2.63601613,9.895534515,0.677559078,10.26300495
2.377248881,2.643198729,9.885957718,0.651222885,10.25391392
2.379248647,2.612074137,9.912294388,0.612915635,10.26899104
2.381248613,2.580949545,9.938630104,0.612915635,10.28656087
2.383248579,2.458845139,9.991303444,0.581790984,10.30585002
2.385248545,1.831564307,10.19002151,0.55784899,10.36833457
2.387247645,1.831564307,10.19002151,0.55784899,10.36833457
2.389246745,1.831564307,10.19002151,0.55784899,10.36833457
2.391246745,1.721431017,10.21875191,0.541089594,10.37684891
2.393246778,1.556231141,10.26424217,0.533906996,10.39526716
2.395246811,1.503558636,10.27860737,0.529118598,10.40146261
2.397246844,1.403002143,10.29776096,0.536301196,10.4067245
2.39924621,1.290474772,10.30254936,0.553060591,10.39777498
2.401246243,1.254561663,10.27621269,0.560243189,10.36765859
2.403246276,1.194706678,10.21156979,0.565031588,10.29673454
2.405246309,1.163581967,10.1588974,0.560243189,10.24065388
2.407247209,1.149216771,10.13256073,0.560243189,10.21290157
2.409248075,1.098938584,10.06312943,0.574608386,10.13925119
2.411248075,1.036689281,10.01763916,0.569819987,10.08724511
2.413248575,0.981622696,9.967360497,0.533906996,10.02980135
2.415248575,0.895431459,9.840468407,0.40940848,9.889602179
2.417248575,0.773327172,9.783007622,0.256179571,9.816868188
2.419248575,0.737414122,9.763854027,0.189141929,9.793487617
2.421248541,0.658405483,9.723152161,0.081402861,9.745758675
2.423248507,0.617704034,9.701604843,0.019153614,9.721268521
2.425248473,0.517147541,9.780612946,-0.141257897,9.795294021
2.427247573,0.550666392,9.785401344,-0.177170932,9.802484506
2.429246673,0.550666392,9.785401344,-0.177170932,9.802484506
2.431246639,0.577002585,9.771036148,-0.208295554,9.790274073
2.433246805,0.591367841,9.749488831,-0.220266551,9.769890774
2.435246771,0.63206923,9.684844971,-0.229843363,9.708169837
2.437246771,0.687135875,9.596260071,-0.263362199,9.62443363
2.439246804,0.718260527,9.548376083,-0.299275219,9.580028688
2.441246837,0.723048925,9.464578629,-0.323217243,9.49765854
2.44324687,0.797269166,9.340080261,-0.244208574,9.377226415
2.445246903,0.823605359,9.22994709,-0.117315881,9.267362736
2.447247803,0.823605359,9.215581894,-0.079008654,9.252649231
2.449248703,0.871489406,9.217975616,-0.062249243,9.259289563
2.451248736,0.924161851,9.217975616,-0.031124622,9.264238681
2.453248736,1.163581967,9.189245224,0.093373865,9.263091787
2.455248702,1.467645645,9.138967514,0.248996973,9.259411993
2.457248668,1.731007814,9.122207642,0.354341865,9.291750022
2.459249301,1.862688899,9.110237122,0.404620081,9.307510288
2.461249267,2.059013367,9.071929932,0.514753342,9.316888951
2.463249233,2.142810583,9.07671833,0.617704034,9.346657751
2.465249199,2.197877169,9.234735489,0.675164878,9.516661768
2.467248299,2.197877169,9.234735489,0.675164878,9.516661768
2.469247432,2.197877169,9.234735489,0.675164878,9.516661768
2.471247432,2.161964178,9.282619476,0.694318473,9.556316842
2.473247432,2.102109194,9.392752647,0.691924274,9.649944277
2.475247432,2.001552582,9.52443409,0.639251828,9.753445564
2.477247432,1.927332401,9.586683273,0.608127236,9.797393791
2.479247432,1.757344007,9.689633369,0.612915635,9.86675825
2.481247432,1.611297727,9.763854027,0.505176544,9.908800591
2.483247432,1.568202138,9.806949615,0.476446152,9.942963323
2.485247432,1.611297727,9.83807373,0.395043284,9.976975207
2.487247932,1.59693253,9.87638092,0.363918662,10.01127017
2.489248832,1.549048543,9.883563995,0.284909993,10.00827469
2.491248865,1.498770237,9.900322914,0.256179571,10.01640325
2.493248698,1.319205165,9.972148895,0.237025961,10.06182077
2.495248731,1.343147159,9.936236382,0.387860686,10.03410552
2.497248764,1.379060149,9.885957718,0.40940848,9.990074184
2.499248764,1.414973259,9.816526413,0.270544797,9.921669952
2.501248764,1.345541358,9.794978142,0.18674773,9.888728587
2.50324873,1.304839969,9.814131737,0.169988319,9.901953601
2.505248696,1.149216771,9.780612946,0.086191259,9.84827486
2.507247796,1.149216771,9.780612946,0.086191259,9.84827486
2.509246896,1.07739079,9.766247749,0.059855044,9.825678025
2.511246862,1.07739079,9.766247749,0.059855044,9.825678025
2.513246828,0.864306808,9.771036148,0.088585466,9.80958822
2.515246828,0.749385119,9.744700432,0.277727395,9.77741771
2.517246861,0.658405483,9.694421768,0.37110126,9.723838097
2.519246894,0.493205547,9.5747118,0.375889659,9.594772055
2.521246927,0.44771573,9.488520622,0.20590134,9.50130877
2.52324696,0.474051923,9.273042679,0.117315881,9.285892998
2.525246993,0.567425787,9.062353134,-0.062249243,9.080313393
2.527247893,0.696712673,8.949825287,-0.136469498,8.977939916
2.529248793,0.691924274,8.954613686,-0.124498487,8.9821693
2.531248826,0.629675031,9.081506729,-0.031124622,9.103363327
2.533248826,0.622492433,9.232340813,0.01436521,9.253314005
2.535248826,0.581790984,9.330503464,0.050278235,9.348759465
2.537248826,0.500388145,9.519645691,0.126892686,9.533632263
2.539248826,-0.361524463,9.624990463,-0.679953277,9.655748434
2.541248826,-0.462080926,9.65132618,-0.59376204,9.680607892
2.543248826,0.062249243,9.680056572,-0.057460841,9.680427261
2.545248826,1.07739079,9.783007622,0.122104287,9.842912094
2.547248326,1.07739079,9.809343338,0.114921682,9.869001704
2.549247426,1.07739079,9.809343338,0.114921682,9.869001704
2.551247392,1.017535686,9.8644104,0.354341865,9.92308065
2.553247358,1.292868972,9.897929192,0.651222885,10.00322966
2.555247324,1.551442742,9.845256805,1.067813993,10.02378586
2.55724729,2.264914751,9.828496933,1.249773264,10.16322409
2.559247256,2.633621931,9.847650528,0.9648633,10.23929424
2.561247222,2.645592928,9.804554939,0.67037648,10.17732107
2.563247222,2.427720547,9.610625267,0.177170932,9.914097771
2.565247255,2.341529369,9.543587685,-0.067037649,9.826867239
2.567248155,2.327163935,9.52443409,-0.086191259,9.804996973
2.569249055,2.319981337,9.514857292,0.062249243,9.79380915
2.571249088,2.26970315,9.56274128,0.308852017,9.833257992
2.573249121,2.224213362,9.596260071,0.385466486,9.858190343
2.575249154,1.980004787,9.663297653,0.469263524,9.875218921
2.577249154,1.788468719,9.670479774,0.533906996,9.848952031
2.579249154,1.647210717,9.701604843,0.514753342,9.853903322
2.58124912,1.436521053,9.792584419,0.500388145,9.9100298
2.583249086,1.510741234,9.852438927,0.497993946,9.980024542
2.585249052,0.816422761,9.974543571,0.356736064,10.01425615
2.587248152,0.816422761,9.974543571,0.356736064,10.01425615
2.589247252,0.682347477,9.996091843,0.423773706,10.02831164
2.591247218,0.603338838,10.00088024,0.459686726,10.02960295
2.593247218,0.577002585,9.981725693,0.469263524,10.00939499
2.595247251,0.469263524,9.917082787,0.541089594,9.942912913
2.597247284,0.146046311,9.83807373,0.802057564,9.871794193
2.599247317,0.10295067,9.727940559,0.93134445,9.772964179
2.60124735,0.555454791,9.778219223,0.833182216,9.829358769
2.603247383,1.867477298,10.21875191,0.859518409,10.42348953
2.605247416,2.547430515,10.33367348,0.957680702,10.68603585
2.607248316,0.512359142,9.816526413,1.429338455,9.933262864
2.609249216,-1.213860273,9.182063103,0.653617084,9.284985454
2.611249216,-1.261744261,9.138967514,-0.105344877,9.226257277
2.613249216,-0.44771573,9.512462616,-0.869095206,9.562568738
2.615249216,0.505176544,9.773430824,-0.543483794,9.80155743
2.617249216,0.871489406,9.857227325,-0.031124622,9.895726
2.619249216,0.825999558,9.890746117,0.112527482,9.925814649
2.621249216,0.67037648,9.969755173,0.280121595,9.996193822
2.623249216,0.696712673,10.00327396,0.646434486,10.04832205
2.625249182,0.861912608,9.759065628,0.775721371,9.827715855
2.627248282,0.869095206,9.720758438,0.644040287,9.780759632
2.629247382,0.869095206,9.720758438,0.644040287,9.780759632
2.631247348,0.869095206,9.720758438,0.644040287,9.780759632
2.633247314,0.92895025,9.646537781,0.418985307,9.700215895
2.63524728,0.991199493,9.605836868,0.270544797,9.660630045
2.637247246,0.998382092,9.586683273,0.256179571,9.641933984
2.639247212,0.986411095,9.541193008,0.29688102,9.596640517
2.641247212,0.924161851,9.519645691,0.411802679,9.573260189
2.643247245,0.89064306,9.514857292,0.48362875,9.568680741
2.645247278,0.809240162,9.502885818,0.586579442,9.555301354
2.647248178,0.782903969,9.462183952,0.603338838,9.513668143
2.649249078,0.778115571,9.452607155,0.584185243,9.50255325
2.651249111,0.778115571,9.466972351,0.454898328,9.509782428
2.653249144,0.588973641,9.565135002,0.287304193,9.587556584
2.655249144,0.428562105,9.723152161,0.165199921,9.733994269
2.657249144,0.390254885,9.821314812,0.098162271,9.829555399
2.65924911,0.337582439,10.00088024,-0.172382519,10.00806091
2.661249076,0.574608386,10.05594635,-0.229843363,10.07497195
2.663249042,0.778115571,10.07988834,-0.18674773,10.11160163
2.665249008,1.941697598,9.727940559,0.275333196,9.923649805
2.667248108,1.941697598,9.727940559,0.275333196,9.923649805
2.669247208,1.941697598,9.727940559,0.275333196,9.923649805
2.671247208,1.996764183,9.636960983,0.351947635,9.847941477
2.673247241,1.972822189,9.478943825,0.509964943,9.695486974
2.675247274,1.798045516,9.426271439,0.627280831,9.616706409
2.677247307,1.654393315,9.411906242,0.687135875,9.580874285
2.67924734,1.455674648,9.385569572,0.691924274,9.522954588
2.681247373,1.479616642,9.359233856,0.63206923,9.496527539
2.683247406,1.575384736,9.340080261,0.524330199,9.48650929
2.685247439,1.613691926,9.409511566,0.471657723,9.55852345
2.687248339,1.604115129,9.543587685,0.438138902,9.687374099
2.689249205,1.584961534,9.61301899,0.450109929,9.753196199
2.691249205,1.515529633,9.744700432,0.495599747,9.874291655
2.693249205,1.470039845,9.850045204,0.550666392,9.974349159
2.695249205,1.458068848,9.885957718,0.579396784,10.00968658
2.697249205,1.455674648,9.890746117,0.648828685,10.01832452
2.699249205,1.453280449,9.890746117,0.696712673,10.02119211
2.701249205,1.458068848,9.87638092,0.699106872,10.00787766
2.703249171,1.37427175,9.878775597,0.600944638,9.991995026
2.705249137,1.223437071,9.859622002,0.608127236,9.953831575
2.707248237,1.18752408,9.818920135,0.636857629,9.910953219
2.709247303,1.18752408,9.818920135,0.636857629,9.910953219
2.711247269,1.139639974,9.785401344,0.648828685,9.872883946
2.713247235,1.096544385,9.756670952,0.665588081,9.840632355
2.715247201,1.053448796,9.648932457,0.725443125,9.733340621
2.717247167,0.735019922,9.684844971,0.562637389,9.728979249
2.719247167,0.509964943,9.692028046,0.507570744,9.718698469
2.7212472,0.418985307,9.689633369,0.509964943,9.712085655
2.723247233,0.320823014,9.696816444,0.512359142,9.715641433
2.725246966,0.385466486,9.644144058,0.481234551,9.663833904
2.727247866,0.392649084,9.622595787,0.416591108,9.639609491
2.729248766,0.33518824,9.572318077,0.311246216,9.583240513
2.731248799,0.256179571,9.541193008,0.294486821,9.549173497
2.733248799,0.280121595,9.586683273,0.361524463,9.597586375
2.735248799,0.430956304,9.665691376,0.476446152,9.68701781
2.737248765,0.464475125,9.682451248,0.442927301,9.703699496
2.739248731,0.414196909,9.701604843,0.488417149,9.722718083
2.741248697,0.325611442,9.737517357,0.411802679,9.751658758
2.743248663,0.311246216,9.670479774,0.160411507,9.67681689
2.745248629,0.814028561,9.749488831,0.088585466,9.783814304
2.747247729,0.814028561,9.749488831,0.088585466,9.783814304
2.749246862,0.814028561,9.749488831,0.088585466,9.783814304
2.751246862,0.938527048,9.756670952,0.100556471,9.802222844
2.753246895,1.034295082,9.759065628,0.153228909,9.814917593
2.755246928,1.204283476,9.778219223,0.225054964,9.854669939
2.757246961,1.314416766,9.814131737,0.280121595,9.905722654
2.759246994,1.33835876,9.828496933,0.311246216,9.92408335
2.761247027,1.321599364,9.847650528,0.318428814,9.941038311
2.76324706,1.312022567,9.871592522,0.323217243,9.96364449
2.765247093,1.328781962,9.873987198,0.33279404,9.96855238
2.767247959,1.359906554,9.869198799,0.325611442,9.967770743
2.769248859,1.271321058,9.845256805,0.280121595,9.930951964
2.771248859,1.307234168,9.806949615,0.248996973,9.896823805
2.773248859,1.44849205,9.778219223,0.222660765,9.887430314
2.775248859,1.489193439,9.730335236,0.177170932,9.8452278
2.777248859,1.505952835,9.696816444,0.20350714,9.815169803
2.779248859,1.565807939,9.608230591,0.37110126,9.742051413
2.781248825,1.59932673,9.569923401,0.538695395,9.71758574
2.783248791,1.458068848,9.557952881,0.512359142,9.682093778
2.785249057,1.237802267,9.292196274,0.430956304,9.384177608
2.787248157,1.237802267,9.292196274,0.430956304,9.384177608
2.789247257,1.237802267,9.292196274,0.430956304,9.384177608
2.791247223,1.125274777,9.292196274,0.435744703,9.370220294
2.793247189,1.012747288,9.316138268,0.488417149,9.383743421
2.795247155,1.04147768,9.380781174,0.577002585,9.45603845
2.797247155,1.012747288,9.423876762,0.603338838,9.497322152
2.799247188,0.912190855,9.550769806,0.541089594,9.609478341
2.801247221,0.840364814,9.653720856,0.33518824,9.696024471
2.803247254,0.825999558,9.696816444,0.272938997,9.735759864
2.805247287,0.715866327,9.773430824,0.265756398,9.803215857
2.807248187,0.665588081,9.787796021,0.275333196,9.814263437
2.809249087,0.63446343,9.794978142,0.287304193,9.819708974
2.81124912,0.644040287,9.754277229,0.339976639,9.781426086
2.81324912,0.78050977,9.677662849,0.395043284,9.71711958
2.815249086,0.89064306,9.639355659,0.411802679,9.689169419
2.817249052,0.938527048,9.639355659,0.40940848,9.693586841
2.819249018,1.00556469,9.692028046,0.423773706,9.753263666
2.821248984,1.039083481,9.773430824,0.493205547,9.840878836
2.82324895,1.00556469,9.823708534,0.488417149,9.887110853
2.825248916,0.857124209,9.945813179,0.459686726,9.993256406
2.827248049,0.857124209,9.945813179,0.459686726,9.993256406
2.829247182,0.857124209,9.945813179,0.459686726,9.993256406
2.831247215,0.907402456,9.943418503,0.423773706,9.993724776
2.833246848,0.902614057,9.929053307,0.380678058,9.97726052
2.835246881,0.74459672,9.929053307,0.272938997,9.960673649
2.837246914,0.605733037,9.871592522,0.14844051,9.891273225
2.839246947,0.512359142,9.82610321,0.062249243,9.839648935
2.84124698,0.521935999,9.814131737,0.090979666,9.828421859
2.843247013,0.433350503,9.773430824,0.284909993,9.787181231
2.845247013,0.529118598,9.730335236,0.37349546,9.751865931
2.847247879,0.694318473,9.687239647,0.37349546,9.719268953
2.849248745,0.70628953,9.648932457,0.337582439,9.680635535
2.851248745,0.63446343,9.687239647,0.318428814,9.713215365
2.853248745,0.435744703,9.967360497,0.55784899,9.992464371
2.855248745,0.452504128,10.06552315,0.895431459,10.11539983
2.857248745,0.639251828,10.11580181,1.07739079,10.19307903
2.859248711,0.799663365,9.895534515,1.010353088,9.979072011
2.861248677,0.85473001,9.771036148,0.950498104,9.854296395
2.863248643,0.804451764,9.680056572,0.871489406,9.752442343
2.865248609,1.273715258,9.845256805,0.354341865,9.93362926
2.867247709,1.273715258,9.845256805,0.354341865,9.93362926
2.869246809,1.273715258,9.845256805,0.354341865,9.93362926
2.871246775,1.388636947,9.912294388,0.356736064,10.01544573
2.873246741,1.45088625,9.97933197,0.37110126,10.09107792
2.875246741,1.553836942,10.11819553,0.395043284,10.24443016
2.877246774,1.56101954,10.20438671,0.454898328,10.33311292
2.879246807,1.541865945,10.2331171,0.497993946,10.36060009
2.88124684,1.549048543,10.2618475,0.51954174,10.39110144
2.883246873,1.537077546,10.21875191,0.397437483,10.34134684
2.885246906,1.620874524,10.13256073,0.246602774,10.26434772
2.887247806,1.675941229,10.08228302,0.20350714,10.22265254
2.889248706,1.805228114,9.972148895,0.181959331,10.13586263
2.891248706,1.893813491,9.869198799,0.20350714,10.0513198
2.893249072,1.908178806,9.82610321,0.210689753,10.01188498
2.895249038,1.924938202,9.720758438,0.177170932,9.911100909
2.897249004,1.9321208,9.617807388,0.071826048,9.810222664
2.89924897,1.9321208,9.565135002,-0.023942016,9.75835394
2.901248936,1.874659896,9.49809742,-0.169988319,9.682825019
2.903248469,1.817199111,9.445425034,-0.146046311,9.619750319
2.905248469,1.55862534,9.196428299,-0.004788403,9.327573604
2.907247602,1.55862534,9.196428299,-0.004788403,9.327573604
2.909246768,1.460463047,9.136572838,0.019153614,9.252582472
2.911246801,1.321599364,9.136572838,0.019153614,9.231682131
2.913246834,1.163581967,9.021651268,-0.002394202,9.096379518
2.915246867,0.952892304,8.933065414,0.062249243,8.983959951
2.9172469,0.823605359,8.901941299,0.146046311,8.941152846
2.919246933,0.794874966,8.916306496,0.169988319,8.953281173
2.921246966,0.833182216,9.024045944,0.311246216,9.067771061
2.923246966,0.828393817,9.198822021,0.380678058,9.243888721
2.925246966,0.842759013,9.407117844,0.402225882,9.453353613
2.927247832,0.849941611,9.529222488,0.404620081,9.575604388
2.929248698,0.842759013,9.787796021,0.347159237,9.830143093
2.931248698,0.89064306,9.905111313,0.323217243,9.950323842
2.933248698,0.916979253,10.09664822,0.258573771,10.14149972
2.935248698,0.909796655,10.20199299,0.20350714,10.24450126
2.937248664,0.92895025,10.22354031,0.210689753,10.2678194
2.93924863,1.027112484,10.22114658,0.275333196,10.27631286
2.941248596,1.11569798,10.1684742,0.320823014,10.23452866
2.943248562,1.168370485,10.10861874,0.342370838,10.18167374
2.945248528,1.295263171,9.859622002,0.304063618,9.948985244
2.947247628,1.295263171,9.859622002,0.304063618,9.948985244
2.949246728,1.295263171,9.859622002,0.304063618,9.948985244
2.951246694,1.283292055,9.842862129,0.263362199,9.929659261
2.953246694,1.292868972,9.818920135,0.282515794,9.907699934
2.955246727,1.199495077,9.806949615,0.258573771,9.883415887
2.95724676,1.146822572,9.814131737,0.215478152,9.88325931
2.959246793,1.055842996,9.814131737,0.196324542,9.87271642
2.961246826,0.950498104,9.809343338,0.169988319,9.85675197
2.963247292,0.905008256,9.818920135,0.122104287,9.86129515
2.965247325,0.81881696,9.806949615,0.141257897,9.842086962
2.967248225,0.723048925,9.82610321,0.177170932,9.854262712
2.969249091,0.677559078,9.82610321,0.275333196,9.853283665
2.971249057,0.548272193,9.816526413,0.301669419,9.836452493
2.973249023,0.438138902,9.823708534,0.375889659,9.840655877
2.975248989,0.366312861,9.82610321,0.404620081,9.841250267
2.977248955,0.354341865,9.809343338,0.428562105,9.825092384
2.979248921,0.500388145,9.663297653,0.63206923,9.696866573
2.981248887,0.627280831,9.478943825,0.651222885,9.521971882
2.983248887,0.63206923,9.419088364,0.579396784,9.458035618
2.985248887,0.938527048,9.440636635,0.471657723,9.498890151
2.987248053,0.938527048,9.440636635,0.471657723,9.498890151
2.989247219,0.938527048,9.440636635,0.471657723,9.498890151
2.991247052,1.024718285,9.481337547,0.481234551,9.548685561
2.993247085,1.261744261,9.522039413,0.533906996,9.620098225
2.995247118,1.381454349,9.526827812,0.581790984,9.644031575
2.997247151,1.529894829,9.488520622,0.696712673,9.636286128
2.999246784,1.613691926,9.414299965,0.847547412,9.589128327
3.001246817,1.661576033,9.354445457,0.885854602,9.542076457
3.003246817,1.666364431,9.282619476,0.806845963,9.465452719
3.005246817,1.661576033,9.30656147,0.622492433,9.474197493
3.007247683,1.675941229,9.337685585,0.529118598,9.501637626
3.009248549,1.716642618,9.414299965,0.426167905,9.579014813
3.011248549,1.719036818,9.510068893,0.342370838,9.670249
3.013248549,1.699883223,9.567529678,0.33518824,9.723146521
3.015248515,1.604115129,9.591471672,0.33518824,9.730460695
3.017248481,1.400607944,9.641749382,0.351947635,9.749302585
3.019248447,1.33835876,9.653720856,0.411802679,9.754748176
3.021248413,1.283292055,9.627384186,0.493205547,9.725050975
3.023248379,1.137245774,9.557952881,0.591367841,9.643521512
3.025248345,1.098938584,9.622595787,0.239420176,9.688102895
3.027247445,1.192312479,9.682451248,0.146046311,9.756679801
3.029246545,1.192312479,9.682451248,0.146046311,9.756679801
3.031246545,1.304839969,9.739912033,0.081402861,9.827264125
3.033246578,1.422155857,9.794978142,0.045489833,9.897787298
3.035246611,1.616086125,9.883563995,0.04070143,10.01490031
3.037246644,1.625662923,9.931447983,0.155623108,10.06482278
3.039246677,1.59693253,9.955389977,0.201112941,10.08466308
3.04124671,1.520318031,10.01285076,0.263362199,10.13103681
3.043246743,1.462857246,10.02482224,0.301669419,10.13548305
3.045246776,1.498770237,10.02961063,0.323217243,10.14612591
3.047247642,1.515529633,10.03439903,0.363918662,10.15472456
3.049248475,1.496376038,9.976937294,0.442927301,10.09824755
3.051248641,1.438915253,9.857227325,0.512359142,9.974864387
3.053248607,1.400607944,9.773430824,0.560243189,9.889162003
3.055248573,1.345541358,9.610625267,0.572214186,9.721215389
3.057248539,1.307234168,9.476549149,0.545877993,9.581848867
3.059248905,1.309628367,9.411906242,0.524330199,9.517038811
3.061248871,1.357512355,9.323320389,0.452504128,9.432491869
3.063248871,1.261744261,9.313743591,0.521935999,9.413300986
3.065248904,0.936132848,9.409511566,0.67037648,9.479697107
3.06724807,0.936132848,9.409511566,0.67037648,9.479697107
3.069247236,0.936132848,9.409511566,0.67037648,9.479697107
3.071247269,0.921767652,9.47176075,0.605733037,9.535765298
3.073247302,0.847547412,9.627384186,0.646434486,9.686213936
3.075247335,0.644040287,9.82610321,0.646434486,9.868382326
3.077247368,0.44532153,9.929053307,0.677559078,9.962103048
3.079247401,0.500388145,10.08946514,0.622492433,10.12102722
3.081247401,0.74220252,10.17805099,0.450109929,10.21499807
3.083247401,0.811634362,10.24030018,0.438138902,10.28175393
3.085247401,0.790086567,10.2426939,0.435744703,10.28235812
3.087248267,0.778115571,10.22593498,0.363918662,10.26195142
3.089249133,0.900219858,10.19959831,0.227449164,10.241774
3.091249133,1.007958889,10.1493206,0.256179571,10.20246626
3.093249099,1.058237195,9.988908768,0.383072257,10.05210966
3.095249065,0.952892304,9.794978142,0.390254885,9.84895423
3.097249031,0.897825658,9.653720856,0.509964943,9.70878373
3.099248997,0.833182216,9.428665161,0.507570744,9.479005612
3.101248963,1.221042871,9.265859604,0.399831682,9.354515769
3.103248929,1.395819545,9.134179115,0.488417149,9.253112537
3.105248895,1.125274777,8.834903717,0.620098233,8.927837859
3.107247995,1.15161097,8.801384926,0.658405483,8.900791101
3.109247128,1.15161097,8.801384926,0.658405483,8.900791101
3.111246894,1.15161097,8.801384926,0.658405483,8.900791101
3.113246927,1.213860273,8.806173325,0.660799682,8.913966659
3.11524696,1.244984865,8.928277016,0.545877993,9.03117382
3.117246993,1.321599364,8.966584206,0.486022949,9.076479246
3.119247026,1.455674648,9.047987938,0.440533102,9.174919281
3.121247059,1.379060149,9.215581894,0.505176544,9.33187869
3.123247092,1.331176162,9.296984673,0.512359142,9.405767691
3.125247092,1.403002143,9.402329445,0.526724398,9.521011112
3.127247925,1.467645645,9.464578629,0.497993946,9.590632426
3.129248758,1.503558636,9.500492096,0.462080926,9.629826448
3.131248724,1.640028119,9.589076996,0.380678058,9.73575912
3.13324869,1.862688899,9.648932457,0.143652096,9.82813021
3.135248656,1.280897856,9.778219223,0.687135875,9.885667717
3.137248622,1.120486379,9.840468407,0.773327172,9.934200678
3.139248588,1.335964561,9.919476509,0.567425787,10.02510786
3.141248588,1.462857246,9.924264908,0.476446152,10.04280769
3.143248621,1.419761658,9.852438927,0.40940848,9.962624718
3.145248654,1.094150186,9.759065628,0.330399841,9.825766668
3.14724782,1.094150186,9.759065628,0.330399841,9.825766668
3.149246986,1.094150186,9.759065628,0.330399841,9.825766668
3.151247019,1.055842996,9.790189743,0.349553436,9.853162296
3.153247052,1.00317049,9.893140793,0.378283858,9.951064489
3.155247085,0.998382092,9.957783699,0.383072257,10.01503706
3.157247118,1.017535686,10.12777233,0.368707061,10.18543549
3.159247118,1.043871999,10.26424217,0.342370838,10.32286559
3.161247118,1.022324085,10.30015469,0.347159237,10.35658499
3.163247118,0.873883605,10.34564495,0.407014281,10.3904621
3.165247118,0.794874966,10.38874054,0.433350503,10.42811339
3.167247984,0.811634362,10.39831734,0.421379507,10.43845364
3.16924885,0.835576415,10.37676907,0.349553436,10.41622349
3.171248683,0.919373453,10.32409668,0.282515794,10.36880104
3.173248649,0.962469101,10.29776096,0.227449164,10.34514189
3.175248615,0.984016895,10.24508858,0.210689753,10.29439262
3.177248581,1.063025594,10.17565632,0.208295554,10.23315161
3.179248547,1.110909581,10.10143661,0.239420176,10.16515931
3.181248513,1.127668977,10.05594635,0.251391172,10.12209918
3.183248479,1.110909581,9.986514091,0.325611442,10.05338782
3.185248445,0.948103845,9.840468407,0.450109929,9.896278003
3.187247578,0.950498104,9.823708534,0.466869324,9.880620577
3.189246744,0.950498104,9.823708534,0.466869324,9.880620577
3.191246777,0.950498104,9.783007622,0.476446152,9.840614092
3.19324681,0.955286503,9.749488831,0.478840351,9.807874023
3.195246843,0.981622696,9.692028046,0.430956304,9.751139118
3.197246876,1.00317049,9.627384186,0.37349546,9.686711318
3.199246909,1.027112484,9.603442192,0.349553436,9.664535664
3.201246942,1.127668977,9.557952881,0.33279404,9.629997532
3.203246942,1.26413846,9.502885818,0.359130263,9.593323693
3.205246908,1.443703651,9.392752647,0.433350503,9.512931997
3.207248174,1.527500629,9.335291862,0.495599747,9.472410012
3.209249007,1.640028119,9.246706009,0.59615624,9.409923831
3.211250073,1.702277422,9.196428299,0.675164878,9.376987229
3.213250039,1.606509328,9.186851501,0.723048925,9.354245693
3.215250005,1.584961534,9.158121109,0.538695395,9.309859185
3.217249971,1.874659896,9.222764015,0.770932972,9.442884276
3.219249971,1.814804912,9.275436401,0.78050977,9.483482103
3.221249971,1.740584612,9.328108788,0.751779318,9.518845544
3.223249971,1.704671621,9.375992775,0.708683729,9.556012687
3.225249971,1.398213744,9.608230591,0.375889659,9.716706736
3.227249104,1.398213744,9.608230591,0.375889659,9.716706736
3.229248237,1.398213744,9.608230591,0.375889659,9.716706736
3.231248637,1.398213744,9.608230591,0.375889659,9.716706736
3.233248637,1.800439715,9.694421768,0.620098233,9.879671979
3.235248637,1.654393315,9.754277229,0.660799682,9.91562392
3.23724867,1.59932673,9.756670952,0.644040287,9.907838409
3.239248703,1.549048543,9.756670952,0.63446343,9.899228419
3.241248736,1.472434044,9.754277229,0.565031588,9.880953748
3.243248769,1.359906554,9.790189743,0.421379507,9.893165405
3.245248802,1.278503656,9.811738014,0.378283858,9.9019126
3.247249702,1.120486379,9.885957718,0.37110126,9.95617225
3.249250568,0.995987892,9.933841705,0.531512797,9.997785193
3.251250568,0.852335811,9.948206902,0.565031588,10.00062786
3.253250534,0.641646028,10.01763916,0.304063618,10.04277146
3.2552505,0.751779318,10.07270622,0.229843363,10.10333662
3.257250466,0.797269166,10.07031155,0.241814375,10.10471607
3.259250432,0.871489406,10.04397583,0.256179571,10.08496764
3.261250398,0.984016895,10.02721596,0.244208574,10.07834247
3.263250364,1.053448796,10.01285076,0.263362199,10.07155869
3.265250364,1.058237195,9.955389977,0.270544797,10.01513105
3.267249097,1.058237195,9.955389977,0.270544797,10.01513105
3.26924823,1.058237195,9.955389977,0.270544797,10.01513105
3.271247163,1.079784989,9.909899712,0.29688102,9.972972789
3.273247196,1.170764685,9.828496933,0.287304193,9.902150555
3.275247229,1.168370485,9.785401344,0.244208574,9.857931167
3.277247262,1.144428372,9.771036148,0.234631762,9.840625781
3.279247295,1.091755986,9.783007622,0.248996973,9.846886247
3.281247328,1.168370485,9.783007622,0.292092621,9.856857807
3.283247328,1.22583127,9.768642426,0.316034615,9.85032563
3.285247328,1.403002143,9.689633369,0.404620081,9.799037058
3.287248194,1.417367458,9.670479774,0.399831682,9.781971936
3.28924906,1.414973259,9.636960983,0.375889659,9.747536066
3.29124906,1.472434044,9.557952881,0.318428814,9.675945545
3.29324906,1.572990537,9.45979023,0.272938997,9.593561701
3.29524906,1.67115283,9.426271439,0.268150598,9.577016746
3.297249026,1.716642618,9.378387451,0.277727395,9.538246462
3.299248992,1.817199111,9.347262383,0.287304193,9.526598047
3.301248958,1.848323703,9.364022255,0.270544797,9.54852909
3.303248924,1.872265697,9.352050781,0.287304193,9.541948247
3.30524889,1.980004787,9.435848236,0.280121595,9.645419587
3.30724799,1.980004787,9.469367027,0.280121595,9.678212591
3.309247056,1.980004787,9.469367027,0.280121595,9.678212591
3.311247022,1.984793186,9.488520622,0.29688102,9.698431107
3.313247022,1.900996208,9.543587685,0.323217243,9.736442978
3.315247055,1.886630893,9.565135002,0.356736064,9.755944052
3.317247088,1.829170108,9.629778862,0.44771573,9.812183936
3.319246821,1.721431017,9.656114578,0.538695395,9.823139326
3.321246854,1.690306425,9.639355659,0.586579442,9.803998612
3.323246887,1.74776721,9.579500198,0.591367841,9.755574314
3.32524692,1.728613615,9.555558205,0.63206923,9.731202862
3.327247786,1.661576033,9.545981407,0.641646028,9.710731464
3.329248686,1.632845521,9.519645691,0.629675031,9.679169862
3.331248652,1.498770237,9.56274128,0.591367841,9.69752798
3.333248618,1.472434044,9.5747118,0.574608386,9.704295073
3.335248584,1.477222443,9.632172585,0.553060591,9.760471856
3.33724855,1.41018486,9.761459351,0.502782345,9.875601252
3.339248516,1.343147159,9.818920135,0.502782345,9.923105714
3.341248482,1.316810966,9.888352394,0.51954174,9.989165521
3.343248482,1.15400517,9.967360497,0.488417149,10.04582274
3.345248515,0.869095206,10.02721596,0.359130263,10.07121447
3.347247681,0.869095206,10.02721596,0.359130263,10.07121447
3.349246847,0.869095206,10.02721596,0.359130263,10.07121447
3.351246813,0.869095206,10.01763916,0.328005642,10.06061671
3.353246846,0.866701007,10.00566864,0.311246216,10.04795749
3.355246879,0.902614057,9.986514091,0.299275219,10.03168687
3.357246912,0.907402456,9.976937294,0.294486821,10.02244379
3.359246945,0.888248801,9.984120369,0.29688102,10.02795013
3.361246945,0.799663365,10.00566864,0.313640416,10.04247165
3.363246945,0.730231524,10.06312943,0.356736064,10.09589384
3.365246945,0.756567717,10.10143661,0.387860686,10.13715208
3.367247811,0.758961916,10.12298393,0.423773706,10.16023676
3.369248711,0.732625723,10.1493206,0.502782345,10.18814209
3.371248711,0.627280831,10.1636858,0.526724398,10.19663811
3.373248711,0.591367841,10.21156979,0.543483794,10.24310734
3.375248677,0.59376204,10.2331171,0.565031588,10.26589011
3.377248643,0.66798228,10.28578949,0.526724398,10.32090618
3.379248909,0.708683729,10.29536629,0.500388145,10.33185307
3.381248875,0.737414122,10.29776096,0.44532153,10.33372981
3.383248841,0.797269166,10.27381897,0.385466486,10.31191441
3.385248807,1.307234168,10.00327396,0.426167905,10.09732491
3.387247907,1.307234168,10.00327396,0.426167905,10.09732491
3.389247007,1.422155857,10.00327396,0.426167905,10.11284512
3.391247007,1.422155857,9.919476509,0.40940848,10.02926502
3.39324704,1.63763392,9.744700432,0.426167905,9.890533375
3.395247073,1.788468719,9.581894875,0.44771573,9.757652336
3.397247106,1.814804912,9.512462616,0.44532153,9.694264962
3.399247139,1.800439715,9.409511566,0.452504128,9.590894175
3.401247172,1.733402014,9.409511566,0.55784899,9.584090252
3.403247205,1.740584612,9.404723167,0.665588081,9.587567999
3.405247205,1.867477298,9.416694641,0.526724398,9.614522766
3.407248071,1.881842494,9.419088364,0.505176544,9.618511325
3.409248904,1.912967205,9.390357971,0.509964943,9.596787514
3.411248937,1.944091797,9.373599052,0.493205547,9.58577612
3.413248903,1.991975784,9.31853199,0.490811348,9.541692814
3.415248869,2.042253971,9.251494408,0.505176544,9.487684301
3.417248669,2.049436569,9.210793495,0.490811348,9.448799016
3.419248635,1.956062794,9.172486305,0.533906996,9.393920553
3.421248635,1.812410712,9.232340813,0.562637389,9.425365261
3.423248601,1.707065821,9.323320389,0.639251828,9.49984314
3.425248634,2.279279947,9.584288597,0.466869324,9.862640212
3.4272478,2.279279947,9.584288597,0.466869324,9.862640212
3.429246966,2.279279947,9.584288597,0.466869324,9.862640212
3.431246999,2.343923569,9.60104847,0.457292527,9.893595194
3.433247032,2.279279947,9.680056572,0.380678058,9.9520615
3.435247065,2.202665567,9.648932457,0.248996973,9.900284473
3.437247098,2.015917778,9.5747118,0.330399841,9.790209119
3.439247098,1.41257906,9.739912033,0.574608386,9.858571946
3.441247098,0.766144514,9.869198799,0.093373865,9.899332353
3.443247098,0.802057564,9.91468811,0.076614454,9.947371836
3.445247098,1.711854219,10.04158115,0.383072257,10.19365201
3.447247964,2.135627985,9.912294388,0.407014281,10.14791346
3.44924883,2.015917778,9.823708534,0.344765037,10.03434287
3.45124883,1.479616642,9.61301899,0.390254885,9.734048406
3.453248796,1.295263171,9.490914345,0.67037648,9.602320886
3.455248762,1.197100878,9.486125946,0.785298169,9.59355665
3.457248728,1.364694953,9.423876762,0.691924274,9.547282584
3.459248694,1.352723956,9.483732224,0.529118598,9.594321523
3.46124866,1.345541358,9.541193008,0.450109929,9.646110331
3.463248626,1.18991828,9.653720856,0.433350503,9.736427709
3.465248592,0.727837324,9.780612946,0.299275219,9.812222094
3.467247692,0.727837324,9.780612946,0.299275219,9.812222094
3.469246825,0.727837324,9.780612946,0.299275219,9.812222094
3.471246858,0.656011283,9.797372818,0.275333196,9.823170227
3.473246891,0.562637389,9.835680008,0.311246216,9.856674706
3.475246924,0.524330199,9.842862129,0.33279404,9.862434229
3.477247124,0.469263524,9.854833603,0.366312861,9.872797917
3.479247157,0.454898328,9.785401344,0.430956304,9.805444166
3.48124719,0.466869324,9.732728958,0.426167905,9.753235311
3.483247256,0.533906996,9.608230591,0.416591108,9.632066233
3.485247256,0.660799682,9.488520622,0.37349546,9.518832842
3.487248089,0.672770679,9.469367027,0.363918662,9.500208896
3.489248922,0.739808321,9.447818756,0.378283858,9.484286704
3.491248888,0.837970614,9.404723167,0.339976639,9.448100165
3.493249354,0.876277804,9.390357971,0.328005642,9.436857174
3.49524932,0.976834297,9.385569572,0.294486821,9.440860338
3.497249286,1.055842996,9.428665161,0.29688102,9.492242596
3.499249286,1.268926859,9.445425034,0.342370838,9.536427383
3.501249286,1.364694953,9.45979023,0.433350503,9.567539713
3.503249319,1.472434044,9.476549149,0.328005642,9.595865437
3.505249352,1.807622313,9.53640461,0.359130263,9.712851582
3.507248518,1.81959331,9.53640461,0.359130263,9.715086579
3.509247684,1.81959331,9.56274128,0.268150598,9.738010338
3.511247717,1.833958507,9.579500198,0.229843363,9.756180391
3.51324775,1.848323703,9.579500198,0.265756398,9.759802817
3.515247783,1.762132406,9.591471672,0.301669419,9.756661514
3.517247783,1.78368032,9.610625267,0.215478152,9.77711943
3.519247783,1.793257117,9.61301899,0.181959331,9.780542642
3.521247783,1.78128612,9.60104847,0.179565132,9.766542663
3.523247783,1.563413739,9.624990463,0.213083953,9.753466497
3.525247783,1.364694953,9.672874451,0.241814375,9.771661407
3.527248649,1.280897856,9.675268173,0.265756398,9.763305793
3.529249515,0.914585054,9.759065628,0.256179571,9.805174946
3.531249481,0.720654726,9.802161217,0.268150598,9.832274025
3.533249447,0.533906996,9.82610321,0.351947635,9.846889261
3.535249413,0.433350503,9.859622002,0.397437483,9.877140033
3.537249379,0.347159237,9.852438927,0.328005642,9.864008315
3.539249345,0.330399841,9.852438927,0.330399841,9.863512605
3.541249311,0.268150598,9.814131737,0.351947635,9.824100652
3.543249277,0.268150598,9.768642426,0.44532153,9.782463434
3.545249243,0.112527482,9.725546837,0.524330199,9.740320624
3.547248376,0.112527482,9.725546837,0.524330199,9.740320624
3.549247542,0.112527482,9.725546837,0.524330199,9.740320624
3.551247908,0.071826048,9.737517357,0.531512797,9.752277124
3.553247441,-0.007182605,9.737517357,0.548272193,9.752943056
3.555247474,0.04070143,9.692028046,0.569819987,9.708849523
3.557247507,0.098162271,9.696816444,0.55784899,9.713345484
3.55924754,0.256179571,9.708786964,0.476446152,9.723845599
3.561247573,0.553060591,9.742305756,0.395043284,9.765984674
3.563247573,0.679953277,9.763854027,0.380678058,9.794901618
3.565247539,0.895431459,9.83807373,0.301669419,9.883344407
3.567248372,1.201889277,9.888352394,0.251391172,9.964298692
3.569249205,1.383848548,9.909899712,0.225054964,10.00858626
3.571249171,1.426944256,9.893140793,0.253785372,9.998740504
3.573249137,1.027112484,9.974543571,0.397437483,10.03515999
3.575249103,0.658405483,9.998485565,0.545877993,10.03499846
3.577249103,0.617704034,9.974543571,0.603338838,10.01184776
3.579249103,0.586579442,9.897929192,0.577002585,9.932069759
3.581249136,0.627280831,9.83807373,0.481234551,9.869790406
3.583249169,0.713472128,9.809343338,0.354341865,9.841636925
3.585249202,0.59615624,9.581894875,0.577002585,9.617746287
3.587248368,0.59615624,9.581894875,0.577002585,9.617746287
3.589247534,0.730231524,9.517251015,0.521935999,9.559483362
3.591247567,0.730231524,9.517251015,0.521935999,9.559483362
3.5932476,0.89064306,9.45979023,0.320823014,9.50703969
3.5952476,0.948103845,9.378387451,0.342370838,9.432405307
3.5972476,1.127668977,9.392752647,0.359130263,9.467017173
3.5992476,1.44849205,9.385569572,0.241814375,9.499764187
3.6012476,1.63523972,9.39514637,0.229843363,9.53916203
3.6032476,1.738190413,9.404723167,0.306457818,9.568910082
3.6052476,2.030282974,9.488520622,0.548272193,9.718779499
3.607248466,2.188300371,9.598653793,0.565031588,9.861139582
3.609249299,2.257732153,9.677662849,0.462080926,9.948267763
3.611248932,2.418143749,9.840468407,0.244208574,10.13616671
3.613248898,2.482787132,9.962572098,0.14844051,10.26835475
3.615248864,2.525882721,10.00806236,0.16759412,10.32324966
3.61724883,2.616862535,10.03200436,0.289698392,10.37174075
3.619248796,2.657563925,9.981725693,0.37110126,10.33611194
3.621248762,2.667140722,9.9529953,0.359130263,10.3104185
3.623248728,2.621650934,9.885957718,0.323217243,10.23277494
3.625248728,2.303221941,9.584288597,0.306457818,9.861913385
3.627247894,2.303221941,9.514857292,0.306457818,9.794450316
3.62924706,2.303221941,9.514857292,0.306457818,9.794450316
3.631247093,2.250549555,9.450213432,0.292092621,9.718890128
3.633247126,2.094926596,9.39514637,0.284909993,9.630091716
3.635247159,1.989581585,9.320926666,0.301669419,9.535675814
3.637247192,1.764526606,9.24191761,0.33518824,9.414825883
3.639247225,1.546654344,9.189245224,0.454898328,9.329592699
3.641247225,1.45088625,9.177274704,0.469263524,9.303098954
3.643247191,1.26653266,9.194033623,0.363918662,9.287992034
3.645247157,1.07739079,9.258677483,0.325611442,9.326837752
3.64724799,0.945709646,9.349657059,0.342370838,9.403598866
3.649248823,0.814028561,9.507674217,0.469263524,9.553989731
3.651248789,0.775721371,9.589076996,0.471657723,9.631957344
3.653248755,0.718260527,9.596260071,0.414196909,9.63201249
3.655248755,0.562637389,9.620202065,0.428562105,9.64616577
3.657248755,1.046266198,9.488520622,0.239420176,9.549032337
3.659248788,1.312022567,9.435848236,0.282515794,9.530815827
3.661248821,1.00317049,9.584288597,0.416591108,9.645646018
3.663248854,-0.153228909,9.967360497,0.505176544,9.981330458
3.665248887,-0.141257897,9.917082787,0.622492433,9.93760442
3.667248053,-0.141257897,9.917082787,0.622492433,9.93760442
3.669247219,-0.323217243,9.976937294,0.646434486,10.00308076
3.671247252,-0.225054964,9.967360497,0.505176544,9.982691438
3.673247252,-0.071826048,9.948206902,0.399831682,9.956497623
3.675247252,0.227449164,9.912294388,0.359130263,9.92140553
3.677247252,0.217872351,10.01285076,0.486022949,10.02700688
3.679247252,0.248996973,10.03679276,0.488417149,10.05175406
3.681247252,0.232237563,10.15171432,0.536301196,10.16852285
3.683247252,0.622492433,10.09425354,0.301669419,10.11792745
3.685247252,1.398213744,10.03679276,0.275333196,10.13745623
3.687248085,1.589749932,9.924264908,0.450109929,10.06086168
3.689248918,1.556231141,9.794978142,0.610521436,9.936608505
3.691248884,1.407790542,9.768642426,0.591367841,9.887262764
3.69324885,1.37427175,9.747094154,0.500388145,9.856208987
3.695248816,0.955286503,9.8644104,0.869095206,9.948592429
3.697248782,0.78050977,9.917082787,0.684741676,9.971288666
3.699248748,0.924161851,9.87638092,0.588973641,9.936994775
3.701248714,1.012747288,9.878775597,0.63206923,9.950647008
3.703248714,1.403002143,9.82610321,0.526724398,9.939726249
3.705248747,2.458845139,9.65132618,0.313640416,9.964556525
3.707247913,2.121262789,9.735123634,0.486022949,9.975400057
3.709247079,2.121262789,9.735123634,0.486022949,9.975400057
3.711247112,2.121262789,9.735123634,0.486022949,9.975400057
3.713247145,1.472434044,9.926659584,0.500388145,10.0477371
3.715247178,1.771709204,9.804554939,0.064643443,9.96355508
3.717247211,1.953668594,9.694421768,0.026336219,9.889354276
3.719247211,2.018311977,9.53640461,0.095768064,9.748116107
3.721247177,1.78368032,9.478943825,0.191536129,9.647205689
3.723247143,1.589749932,9.45979023,0.237025961,9.595369578
3.725247109,1.37427175,9.414299965,0.270544797,9.517923154
3.727247942,1.403002143,9.368810654,0.397437483,9.481612976
3.729248775,1.326387763,9.352050781,0.63206923,9.466766598
3.731248741,1.237802267,9.387964249,0.694318473,9.494635608
3.733248741,1.084573388,9.510068893,0.665588081,9.594827632
3.735248741,0.981622696,9.646537781,0.59615624,9.714662966
3.737248974,0.936132848,9.703998566,0.567425787,9.76554683
3.739249007,0.81881696,9.818920135,0.560243189,9.868917178
3.74124904,0.694318473,9.866804123,0.517147541,9.904713187
3.743249073,0.679953277,9.857227325,0.500388145,9.893313666
3.745249106,1.086967587,9.708786964,0.179565132,9.771094437
3.747248272,1.086967587,9.708786964,0.179565132,9.771094437
3.749247438,1.086967587,9.708786964,0.179565132,9.771094437
3.751247471,1.139639974,9.684844971,0.124498487,9.752461292
3.753247471,1.091755986,9.658509254,0.08379706,9.72037829
3.755247471,0.988805294,9.641749382,0.093373865,9.692769766
3.757247471,1.070208192,9.579500198,0.067037649,9.639329005
3.759247471,1.618480325,9.385569572,-0.112527482,9.524760217
3.761247471,1.347935557,9.366415977,-0.023942016,9.462940967
3.763247471,1.084573388,9.359233856,0.225054964,9.42455344
3.765247437,0.526724398,9.35683918,0.325611442,9.377307761
3.76724827,0.045489833,9.337685585,0.418985307,9.347191562
3.769249103,0.287304193,9.270648003,0.337582439,9.281240218
3.771249069,0.325611442,9.328108788,0.311246216,9.338978026
3.773249035,0.699106872,9.392752647,0,9.418734135
3.775249001,0.675164878,9.490914345,-0.050278235,9.515031824
3.777248967,0.050278235,9.845256805,0.220266551,9.847848842
3.779248933,0.090979666,10.04397583,0.086191259,10.04475767
3.781248933,-0.033518825,10.11101341,0.143652096,10.11208938
3.783248966,0.181959331,10.1636858,0.169988319,10.16673567
3.785248999,1.00556469,10.05115795,0.318428814,10.10635114
3.787248165,1.139639974,9.993697166,0.265756398,10.06197738
3.789247298,1.139639974,9.993697166,0.265756398,10.06197738
3.791247331,1.173158884,9.9529953,0.282515794,10.02587814
3.793247364,0.921767652,9.950601578,0.328005642,9.998585653
3.795247397,0.809240162,9.897929192,0.507570744,9.943917738
3.797247197,1.122880578,9.747094154,0.457292527,9.822210632
3.799246763,1.496376038,9.584288597,0.411802679,9.70913542
3.801246729,1.630451322,9.531616211,0.44532153,9.680309415
3.803246695,1.951274395,9.481337547,0.234631762,9.682886218
3.805246661,1.965639591,9.483732224,0.328005642,9.690846382
3.807247494,1.984793186,9.495702744,0.44532153,9.711132058
3.809248327,2.37744236,9.474155426,0.37349546,9.77503719
3.811248293,2.482787132,9.510068893,0.565031588,9.845044591
3.813248293,2.360682964,9.569923401,0.746990919,9.885052018
3.815248326,2.37744236,9.610625267,0.620098233,9.919721368
3.817248359,2.159569979,9.608230591,0.699106872,9.872719382
3.819248392,1.912967205,9.627384186,0.876277804,9.854635081
3.821248425,1.900996208,9.610625267,0.63446343,9.817354453
3.823248458,1.527500629,9.751882553,0.404620081,9.879078343
3.825248491,0.548272193,9.974543571,0.735019922,10.01660502
3.827247657,0.548272193,9.974543571,0.735019922,10.01660502
3.829246823,0.548272193,9.974543571,0.735019922,10.01660502
3.831246823,0.023942016,10.10622501,0.981622696,10.15381408
3.833246823,-0.873883605,10.32409668,1.165976286,10.42641576
3.835246823,-1.441309452,10.40310574,0.883460403,10.53956755
3.837246823,-0.234631762,9.924264908,0.684741676,9.95062597
3.839246823,0.481234551,9.670479774,0.663193882,9.705132245
3.841246823,1.295263171,9.313743591,0.500388145,9.416682784
3.843246789,1.285686255,9.146149635,0.265756398,9.239895495
3.845246755,1.015141487,9.119813919,0.201112941,9.178342147
3.847247588,0.361524463,9.129390717,0.181959331,9.138357839
3.849248454,0,9.12699604,0.232237563,9.129950219
3.85124842,-0.02873042,9.119813919,0.265756398,9.123730477
3.853248386,0.026336219,9.155726433,0.349553436,9.162434595
3.855248352,0.134075299,9.227552414,0.330399841,9.234439008
3.857248318,0.239420176,9.275436401,0.282515794,9.282825951
3.859248718,0.433350503,9.407117844,0.222660765,9.41972593
3.861248751,0.620098233,9.572318077,0.143652096,9.593457725
3.863248784,0.675164878,9.732728958,0.064643443,9.756333295
3.865248817,0.653617084,10.07031155,-0.112527482,10.09212824
3.867247983,0.653617084,10.07031155,-0.112527482,10.09212824
3.869247149,0.653617084,10.07031155,-0.112527482,10.09212824
3.871247182,0.598550439,10.13495541,-0.105344877,10.15316115
3.873247215,0.524330199,10.24508858,-0.033518825,10.25855183
3.875247215,0.586579442,10.34085655,0.052672438,10.35761382
3.877247181,0.656011283,10.37437534,0.10295067,10.39560549
3.879247147,0.720654726,10.40549946,0.18674773,10.43209648
3.881247113,0.684741676,10.36958694,0.229843363,10.39471176
3.883247079,0.660799682,10.32409668,0.241814375,10.34804825
3.885247045,0.555454791,10.154109,0.213083953,10.17152223
3.887247878,0.430956304,10.11101341,0.158017308,10.12142703
3.889248711,0.301669419,10.05834103,0.086191259,10.06323296
3.891248711,0.538695395,9.897929192,0.04309563,9.912671297
3.893248744,0.687135875,9.821314812,0.172382519,9.846831779
3.895248777,0.656011283,9.766247749,0.237025961,9.791124921
3.89724881,0.663193882,9.742305756,0.244208574,9.767905886
3.899248843,0.684741676,9.665691376,0.222660765,9.692473304
3.901248876,0.679953277,9.591471672,0.193930343,9.617498338
3.903248909,0.727837324,9.545981407,0.179565132,9.575372151
3.905248942,0.933738649,9.603442192,0.239420176,9.651698909
3.907248108,0.933738649,9.603442192,0.239420176,9.651698909
3.909247241,0.933738649,9.603442192,0.239420176,9.651698909
3.911247241,0.933738649,9.660902977,0.229843363,9.708642653
3.913247241,0.93134445,9.790189743,0.189141929,9.836208231
3.915247241,1.010353088,9.859622002,0.138863698,9.91222692
3.917247241,1.055842996,10.01045704,0.098162271,10.06646365
3.919247241,1.122880578,10.1636858,0.059855044,10.22570058
3.921247207,1.127668977,10.23072338,0.04309563,10.29277394
3.923247173,1.137245774,10.30494308,-0.007182605,10.36750845
3.925247139,1.144428372,10.28578949,0.004788403,10.34926107
3.927247972,1.106121182,10.18523312,0.090979666,10.24552366
3.929248805,1.084573388,10.11819553,0.16759412,10.17753743
3.931248771,1.051054597,9.948206902,0.330399841,10.00903094
3.933248737,1.063025594,9.739912033,0.531512797,9.812156525
3.935248703,1.063025594,9.629778862,0.617704034,9.707946365
3.937248703,0.830788016,9.42148304,0.675164878,9.482109418
3.939248736,1.259350061,9.131784439,0.67037648,9.242556694
3.941248769,1.426944256,9.031228065,0.785298169,9.176924512
3.943248802,1.288080573,8.935460091,0.885854602,9.071181674
3.945248702,1.07739079,8.775048256,0.816422761,8.878557818
3.947247868,1.07739079,8.775048256,0.816422761,8.878557818
3.949247034,1.07739079,8.775048256,0.816422761,8.878557818
3.951247334,1.034295082,8.803778648,0.739808321,8.895144808
3.953247334,1.007958889,8.889969826,0.67037648,8.972009209
3.9552473,1.000776291,9.103054047,0.622492433,9.179032792
3.957247266,0.9648633,9.287407875,0.588973641,9.355949774
3.959247232,0.842759013,9.404723167,0.500388145,9.455656979
3.961247198,0.770932972,9.65132618,0.440533102,9.69208461
3.963247164,0.677559078,9.895534515,0.294486821,9.923074732
3.96524713,0.773327172,10.07031155,0.129286885,10.10078832
3.967247963,0.857124209,10.14692593,0.088585466,10.18344809
3.969248829,1.034295082,10.2570591,-0.002394202,10.30907529
3.971248829,1.180341482,10.30973148,-0.067037649,10.37729557
3.973248829,1.233013868,10.31691456,-0.090979666,10.39073272
3.975248829,1.26653266,10.29776096,-0.1316811,10.37619033
3.977248829,1.309628367,10.2426939,-0.174776718,10.32755788
3.979248829,1.326387763,10.21635818,-0.179565132,10.3036655
3.981248829,1.333570361,10.18762779,-0.237025961,10.27727353
3.983248829,1.352723956,10.17565632,-0.328005642,10.27041534
3.985248829,1.465251446,10.21875191,-0.275333196,10.32693859
3.987247995,1.465251446,10.21875191,-0.275333196,10.32693859
3.989247161,1.443703651,10.20678139,-0.239420176,10.31115845
3.991247194,1.414973259,10.19002151,-0.181959331,10.28940217
3.993247227,1.37666595,10.1732626,-0.112527482,10.2666033
3.99524726,1.256955862,10.14692593,0,10.22448257
3.997247293,1.082179189,10.14692593,0.081402861,10.20479515
3.999247293,1.00317049,10.1397438,0.122104287,10.18997865
4.001247293,0.926556051,10.09904194,0.220266551,10.14384895
4.003247259,0.871489406,10.00806236,0.289698392,10.050111
4.005246959,0.859518409,9.917082787,0.328005642,9.959663177
4.007247792,0.849941611,9.859622002,0.320823014,9.901387487
4.009248625,0.830788016,9.737517357,0.277727395,9.776839239
4.011248325,0.825999558,9.694421768,0.270544797,9.733307926
4.013248291,0.821211159,9.610625267,0.277727395,9.649644465
4.015248291,0.878672004,9.572318077,0.325611442,9.618074686
4.017248324,0.952892304,9.56274128,0.418985307,9.619229346
4.019248357,1.158793569,9.553164482,0.720654726,9.650134579
4.02124839,1.395819545,9.522039413,1.067813993,9.68285978
4.023248423,1.589749932,9.502885818,1.350329757,9.729107574
4.025248456,1.70946002,9.423876762,1.367089152,9.67474235
4.027247622,1.70946002,9.423876762,1.367089152,9.67474235
4.029246788,1.70946002,9.423876762,1.367089152,9.67474235
4.031246821,1.67115283,9.423876762,1.30005157,9.658795945
4.033246821,1.59693253,9.438241959,1.110909581,9.63663452
4.035246821,1.575384736,9.500492096,0.852335811,9.667867576
