"Time (s)","Acceleration x (m/s^2)","Acceleration y (m/s^2)","Acceleration z (m/s^2)","Absolute acceleration (m/s^2)"
1.715847000E-2,4.357447028E-1,9.835680008E0,3.830722570E-1,9.852777224E0
1.915847000E-2,4.620809257E-1,9.823708534E0,3.663128614E-1,9.841389803E0
2.115847000E-2,4.979939461E-1,9.773430824E0,3.447650373E-1,9.792181114E0
2.315847000E-2,5.554547906E-1,9.742305756E0,3.208230138E-1,9.763399964E0
2.515847000E-2,5.722141862E-1,9.727940559E0,3.040636182E-1,9.749498002E0
2.715847000E-2,5.865794420E-1,9.703998566E0,2.873041928E-1,9.725955341E0
2.915327000E-2,5.865794420E-1,9.703998566E0,2.873041928E-1,9.725955341E0
3.114893600E-2,5.865794420E-1,9.703998566E0,2.873041928E-1,9.725955341E0
3.314893600E-2,5.865794420E-1,9.715970039E0,2.944868207E-1,9.738114383E0
3.514906100E-2,6.368576288E-1,9.720758438E0,4.261679053E-1,9.750915410E0
3.714917200E-2,5.793967843E-1,9.794978142E0,2.825157940E-1,9.816165881E0
3.914927200E-2,5.171475410E-1,9.790189743E0,2.681505978E-1,9.807505367E0
4.114936200E-2,5.267243981E-1,9.780612946E0,2.705447972E-1,9.798521453E0
4.314944500E-2,5.219359994E-1,9.780612946E0,2.920926213E-1,9.798883859E0
4.514952100E-2,5.099649429E-1,9.794978142E0,2.825157940E-1,9.812312480E0
4.714959200E-2,4.884171486E-1,9.804554939E0,3.208230138E-1,9.821953791E0
4.914965800E-2,5.075707436E-1,9.802161217E0,3.663128614E-1,9.822126943E0
5.114965800E-2,5.195417404E-1,9.790189743E0,3.950432837E-1,9.811921220E0
5.314965800E-2,5.195417404E-1,9.756670952E0,4.381389022E-1,9.780312744E0
5.514965800E-2,5.075707436E-1,9.766247749E0,4.381389022E-1,9.789238421E0
5.714965800E-2,5.003881454E-1,9.766247749E0,4.357447028E-1,9.788761763E0
5.914965800E-2,4.836287498E-1,9.744700432E0,4.046200812E-1,9.765080680E0
6.114965800E-2,4.716577232E-1,9.732728958E0,3.567360640E-1,9.750678674E0
6.314965800E-2,4.716577232E-1,9.735123634E0,3.327940404E-1,9.752222570E0
6.514965800E-2,4.644751251E-1,9.737517357E0,3.112462163E-1,9.753556050E0
6.714969900E-2,4.908113480E-1,9.766247749E0,3.351882398E-1,9.784316125E0
6.914869900E-2,4.908113480E-1,9.766247749E0,3.351882398E-1,9.784316125E0
7.114773700E-2,4.908113480E-1,9.766247749E0,3.351882398E-1,9.784316125E0
7.314777400E-2,4.812345505E-1,9.771036148E0,3.495534360E-1,9.789122622E0
7.514780900E-2,4.955997467E-1,9.778219223E0,3.567360640E-1,9.797267522E0
7.714784300E-2,5.051765442E-1,9.759065628E0,3.639186621E-1,9.778905975E0
7.914787600E-2,5.123591423E-1,9.771036148E0,3.711012602E-1,9.791495057E0
8.114790900E-2,5.267243981E-1,9.775824547E0,3.615244627E-1,9.796677197E0
8.314790900E-2,5.267243981E-1,9.768642426E0,3.639186621E-1,9.789599084E0
8.514790900E-2,5.386953950E-1,9.759065628E0,3.567360640E-1,9.780430220E0
8.714790900E-2,5.386953950E-1,9.754277229E0,3.758896589E-1,9.776369982E0
8.914877500E-2,5.386953950E-1,9.754277229E0,3.687070608E-1,9.776096455E0
9.114964100E-2,5.434837937E-1,9.761459351E0,3.687070608E-1,9.783527390E0
9.314964100E-2,5.434837937E-1,9.763854027E0,3.758896589E-1,9.786189919E0
9.514960700E-2,5.410895944E-1,9.759065628E0,3.854664862E-1,9.781652432E0
9.714957300E-2,5.386953950E-1,9.744700432E0,3.830722570E-1,9.767093917E0
9.914953900E-2,5.075707436E-1,9.747094154E0,3.758896589E-1,9.767536309E0
1.011495050E-1,4.908113480E-1,9.749488831E0,3.711012602E-1,9.768886548E0
1.031494710E-1,4.405331016E-1,9.739912033E0,3.687070608E-1,9.756838664E0
1.051494370E-1,4.213795066E-1,9.735123634E0,3.687070608E-1,9.751212118E0
1.071494030E-1,3.926490843E-1,9.730335236E0,3.711012602E-1,9.745322634E0
1.091485030E-1,3.926490843E-1,9.730335236E0,3.711012602E-1,9.745322634E0
1.111476360E-1,3.926490843E-1,9.730335236E0,3.711012602E-1,9.745322634E0
1.131476690E-1,4.046200812E-1,9.737517357E0,3.734954596E-1,9.753074415E0
1.151477020E-1,4.070142806E-1,9.744700432E0,3.782838583E-1,9.760529996E0
1.171477350E-1,4.237737060E-1,9.751882553E0,3.830722570E-1,9.768599789E0
1.191477680E-1,4.381389022E-1,9.759065628E0,3.734954596E-1,9.776033270E0
1.211478010E-1,4.405331016E-1,9.759065628E0,3.687070608E-1,9.775959096E0
1.231478340E-1,4.788403511E-1,9.768642426E0,3.663128614E-1,9.787228823E0
1.251478670E-1,4.908113480E-1,9.780612946E0,3.615244627E-1,9.799591079E0
1.271478670E-1,5.195417404E-1,9.773430824E0,3.711012602E-1,9.794263109E0
1.291487000E-1,5.291185975E-1,9.771036148E0,3.854664862E-1,9.792941249E0
1.311495330E-1,5.434837937E-1,9.773430824E0,3.543418646E-1,9.794941698E0
1.331494990E-1,5.482721925E-1,9.775824547E0,3.519476354E-1,9.797510659E0
1.351494650E-1,5.506663918E-1,9.785401344E0,3.423708379E-1,9.806861411E0
1.371494310E-1,5.434837937E-1,9.797372818E0,3.423708379E-1,9.818406518E0
1.391493970E-1,5.554547906E-1,9.804554939E0,3.351882398E-1,9.825995051E0
1.411493630E-1,5.578489900E-1,9.806949615E0,3.303998411E-1,9.828357966E0
1.431496630E-1,5.458779931E-1,9.806949615E0,3.327940404E-1,9.827766553E0
1.451496960E-1,5.434837937E-1,9.778219223E0,3.399766386E-1,9.799210679E0
1.471497290E-1,5.386953950E-1,9.785401344E0,3.447650373E-1,9.806280392E0
1.491488950E-1,5.386953950E-1,9.785401344E0,3.447650373E-1,9.806280392E0
1.511480610E-1,5.386953950E-1,9.785401344E0,3.447650373E-1,9.806280392E0
1.531479610E-1,5.410895944E-1,9.778219223E0,3.471592367E-1,9.799330011E0
1.551479940E-1,5.267243981E-1,9.756670952E0,3.423708379E-1,9.776874984E0
1.571480270E-1,5.003881454E-1,9.768642426E0,3.447650373E-1,9.787524001E0
1.591480600E-1,4.884171486E-1,9.761459351E0,3.423708379E-1,9.779665524E0
1.611480600E-1,5.027823448E-1,9.747094154E0,3.495534360E-1,9.766310570E0
1.631480600E-1,5.099649429E-1,9.751882553E0,3.567360640E-1,9.771721353E0
1.651480600E-1,5.027823448E-1,9.747094154E0,3.591302633E-1,9.766658031E0
1.671480600E-1,4.860229492E-1,9.744700432E0,3.519476354E-1,9.763158913E0
1.691489260E-1,4.740519226E-1,9.756670952E0,3.519476354E-1,9.774518936E0
1.711497920E-1,4.764461517E-1,9.763854027E0,3.495534360E-1,9.781719378E0
1.731497580E-1,4.692635238E-1,9.761459351E0,3.399766386E-1,9.778644130E0
1.751497240E-1,4.740519226E-1,9.768642426E0,3.256114423E-1,9.785556851E0
1.771496900E-1,4.548983276E-1,9.766247749E0,3.136404157E-1,9.781865768E0
1.791496560E-1,4.477157295E-1,9.768642426E0,3.256114423E-1,9.784316380E0
1.811496220E-1,4.453215301E-1,9.768642426E0,3.375824392E-1,9.784612818E0
1.831495880E-1,4.453215301E-1,9.763854027E0,3.519476354E-1,9.780338637E0
1.851495540E-1,4.429273009E-1,9.763854027E0,3.567360640E-1,9.780403400E0
1.871495200E-1,4.716577232E-1,9.768642426E0,3.543418646E-1,9.786439291E0
1.891486530E-1,4.716577232E-1,9.768642426E0,3.543418646E-1,9.786439291E0
1.911478190E-1,4.716577232E-1,9.768642426E0,3.543418646E-1,9.786439291E0
1.931478520E-1,4.740519226E-1,9.754277229E0,3.375824392E-1,9.771622762E0
1.951478850E-1,4.692635238E-1,9.756670952E0,3.256114423E-1,9.773375012E0
1.971479180E-1,4.740519226E-1,9.754277229E0,3.184288144E-1,9.770979808E0
1.991479510E-1,4.860229492E-1,9.756670952E0,3.208230138E-1,9.774035695E0
2.011479840E-1,5.027823448E-1,9.759065628E0,3.256114423E-1,9.777431914E0
2.031477170E-1,4.979939461E-1,9.751882553E0,3.280056417E-1,9.770097185E0
2.051477170E-1,5.027823448E-1,9.754277229E0,3.423708379E-1,9.773225268E0
2.071476830E-1,4.979939461E-1,9.763854027E0,3.663128614E-1,9.783405774E0
2.091485160E-1,5.027823448E-1,9.759065628E0,3.639186621E-1,9.778782583E0
2.111493490E-1,5.027823448E-1,9.763854027E0,3.687070608E-1,9.783740616E0
2.131494490E-1,5.099649429E-1,9.778219223E0,3.878606856E-1,9.799187279E0
2.151494150E-1,5.171475410E-1,9.768642426E0,3.974374831E-1,9.790391870E0
2.171493810E-1,5.075707436E-1,9.763854027E0,3.878606856E-1,9.784728378E0
2.191493470E-1,5.027823448E-1,9.756670952E0,3.878606856E-1,9.777313233E0
2.211493470E-1,4.979939461E-1,9.754277229E0,3.711012602E-1,9.774028769E0
2.231493800E-1,4.860229492E-1,9.759065628E0,3.639186621E-1,9.777935213E0
2.251494130E-1,4.932055473E-1,9.761459351E0,3.423708379E-1,9.779905836E0
2.271494460E-1,5.506663918E-1,9.768642426E0,3.351882398E-1,9.789890677E0
2.291486120E-1,5.506663918E-1,9.768642426E0,3.351882398E-1,9.789890677E0
2.311477780E-1,5.506663918E-1,9.768642426E0,3.351882398E-1,9.789890677E0
2.331478110E-1,5.482721925E-1,9.766247749E0,3.375824392E-1,9.787449075E0
2.351474440E-1,5.195417404E-1,9.761459351E0,3.399766386E-1,9.781185838E0
2.371474770E-1,5.123591423E-1,9.766247749E0,3.375824392E-1,9.785502997E0
2.391474770E-1,5.003881454E-1,9.763854027E0,3.519476354E-1,9.783000608E0
2.411474770E-1,5.051765442E-1,9.754277229E0,3.447650373E-1,9.773432894E0
2.431474770E-1,5.027823448E-1,9.751882553E0,3.375824392E-1,9.770668622E0
2.451474770E-1,4.955997467E-1,9.754277229E0,3.399766386E-1,9.772774810E0
2.471474770E-1,4.692635238E-1,9.754277229E0,3.567360640E-1,9.772072101E0
2.491483430E-1,4.548983276E-1,9.754277229E0,3.519476354E-1,9.771219161E0
2.511491760E-1,4.477157295E-1,9.742305756E0,3.447650373E-1,9.758679918E0
2.531491420E-1,4.453215301E-1,9.763854027E0,3.447650373E-1,9.780082804E0
2.551491080E-1,4.453215301E-1,9.768642426E0,3.519476354E-1,9.785118969E0
2.571490740E-1,4.309563041E-1,9.763854027E0,3.591302633E-1,9.779956203E0
2.591490400E-1,4.357447028E-1,9.754277229E0,3.567360640E-1,9.770519860E0
2.611490060E-1,4.237737060E-1,9.749488831E0,3.495534360E-1,9.764952853E0
2.631489720E-1,4.213795066E-1,9.754277229E0,3.399766386E-1,9.769292148E0
2.651489380E-1,4.046200812E-1,9.744700432E0,3.399766386E-1,9.759020854E0
2.671489380E-1,4.333505034E-1,9.744700432E0,3.567360640E-1,9.760852411E0
2.691481040E-1,4.333505034E-1,9.744700432E0,3.567360640E-1,9.760852411E0
2.711472700E-1,4.285621047E-1,9.739912033E0,3.615244627E-1,9.756036686E0
2.731470030E-1,4.237737060E-1,9.749488831E0,3.591302633E-1,9.765300362E0
2.751470360E-1,4.237737060E-1,9.759065628E0,3.615244627E-1,9.774949924E0
2.771470690E-1,4.070142806E-1,9.775824547E0,3.639186621E-1,9.791059339E0
2.791471020E-1,4.309563041E-1,9.766247749E0,3.591302633E-1,9.782345986E0
2.811471350E-1,4.381389022E-1,9.761459351E0,3.639186621E-1,9.778061727E0
2.831471350E-1,4.525041282E-1,9.763854027E0,3.447650373E-1,9.780412485E0
2.851471010E-1,4.501099288E-1,9.763854027E0,3.232172430E-1,9.779566135E0
2.871470670E-1,4.620809257E-1,9.773430824E0,3.280056417E-1,9.789844563E0
2.891476670E-1,4.668693244E-1,9.785401344E0,3.399766386E-1,9.802429829E0
2.911485000E-1,4.668693244E-1,9.785401344E0,3.543418646E-1,9.802938569E0
2.931484660E-1,4.764461517E-1,9.773430824E0,3.519476354E-1,9.791364468E0
2.951488320E-1,4.860229492E-1,9.766247749E0,3.471592367E-1,9.784494517E0
2.971487980E-1,5.027823448E-1,9.775824547E0,3.447650373E-1,9.794814883E0
2.991487980E-1,4.979939461E-1,9.778219223E0,3.471592367E-1,9.797044895E0
3.011488310E-1,4.860229492E-1,9.780612946E0,3.423708379E-1,9.798664485E0
3.031488640E-1,4.860229492E-1,9.775824547E0,3.136404157E-1,9.792922658E0
3.051488970E-1,4.812345505E-1,9.783007622E0,3.184288144E-1,9.800011313E0
3.071489300E-1,4.501099288E-1,9.792584419E0,3.399766386E-1,9.808817088E0
3.091480960E-1,4.501099288E-1,9.792584419E0,3.399766386E-1,9.808817088E0
3.111472620E-1,4.501099288E-1,9.792584419E0,3.399766386E-1,9.808817088E0
3.131472950E-1,4.596867263E-1,9.792584419E0,3.471592367E-1,9.809512783E0
3.151473280E-1,4.572925270E-1,9.792584419E0,3.567360640E-1,9.809744476E0
3.171473280E-1,4.477157295E-1,9.787796021E0,3.543418646E-1,9.804435653E0
3.191473280E-1,4.453215301E-1,9.775824547E0,3.591302633E-1,9.792549790E0
3.211473280E-1,4.405331016E-1,9.775824547E0,3.519476354E-1,9.792072412E0
3.231473280E-1,4.405331016E-1,9.766247749E0,3.495534360E-1,9.782425677E0
3.251473280E-1,4.333505034E-1,9.768642426E0,3.519476354E-1,9.784581475E0
3.271469940E-1,4.405331016E-1,9.775824547E0,3.567360640E-1,9.792245687E0
3.291478270E-1,4.333505034E-1,9.775824547E0,3.447650373E-1,9.791496370E0
3.311486600E-1,4.501099288E-1,9.773430824E0,3.399766386E-1,9.789695253E0
3.331489260E-1,4.405331016E-1,9.792584419E0,3.471592367E-1,9.808633878E0
3.351488920E-1,4.453215301E-1,9.773430824E0,3.567360640E-1,9.790072623E0
3.371488580E-1,4.309563041E-1,9.761459351E0,3.567360640E-1,9.777477824E0
3.391488240E-1,4.429273009E-1,9.751882553E0,3.639186621E-1,9.768717148E0
3.411487900E-1,4.572925270E-1,9.749488831E0,3.734954596E-1,9.767351113E0
3.431487560E-1,4.501099288E-1,9.766247749E0,3.639186621E-1,9.783385449E0
3.451487560E-1,4.429273009E-1,9.763854027E0,3.663128614E-1,9.780757392E0
3.471487890E-1,4.094084799E-1,9.756670952E0,3.495534360E-1,9.771511192E0
3.491481890E-1,4.094084799E-1,9.756670952E0,3.495534360E-1,9.771511192E0
3.511473550E-1,4.261679053E-1,9.761459351E0,3.543418646E-1,9.777180877E0
3.531473880E-1,4.261679053E-1,9.761459351E0,3.543418646E-1,9.777180877E0
3.551474210E-1,4.525041282E-1,9.778219223E0,3.591302633E-1,9.795269558E0
3.571474540E-1,4.525041282E-1,9.763854027E0,3.663128614E-1,9.781195763E0
3.591474870E-1,4.525041282E-1,9.763854027E0,3.734954596E-1,9.781467390E0
3.611474870E-1,4.596867263E-1,9.759065628E0,3.567360640E-1,9.776396802E0
3.631474530E-1,4.788403511E-1,9.766247749E0,3.495534360E-1,9.784225610E0
3.651474190E-1,4.836287498E-1,9.756670952E0,3.351882398E-1,9.774399009E0
3.671473850E-1,4.740519226E-1,9.749488831E0,3.256114423E-1,9.766436428E0
3.691482180E-1,5.075707436E-1,9.754277229E0,3.256114423E-1,9.772900037E0
3.711490510E-1,5.123591423E-1,9.749488831E0,3.232172430E-1,9.768291239E0
3.731490170E-1,5.147533417E-1,9.756670952E0,3.208230138E-1,9.775506456E0
3.751489830E-1,5.051765442E-1,9.775824547E0,3.351882398E-1,9.794605662E0
3.771489830E-1,5.171475410E-1,9.775824547E0,3.375824392E-1,9.795312606E0
3.791490160E-1,5.267243981E-1,9.785401344E0,3.136404157E-1,9.804585069E0
3.811490490E-1,5.171475410E-1,9.773430824E0,3.184288144E-1,9.792282092E0
3.831490820E-1,5.267243981E-1,9.766247749E0,3.136404157E-1,9.785469023E0
3.851491150E-1,5.243301988E-1,9.768642426E0,3.016694188E-1,9.787354159E0
3.871494810E-1,5.506663918E-1,9.785401344E0,3.495534360E-1,9.807114792E0
3.891486470E-1,5.506663918E-1,9.785401344E0,3.495534360E-1,9.807114792E0
3.911478130E-1,5.506663918E-1,9.785401344E0,3.495534360E-1,9.807114792E0
3.931476460E-1,5.434837937E-1,9.783007622E0,3.519476354E-1,9.804411247E0
3.951476460E-1,5.434837937E-1,9.787796021E0,3.471592367E-1,9.809018560E0
3.971476460E-1,5.267243981E-1,9.790189743E0,3.471592367E-1,9.810493022E0
3.991487790E-1,5.267243981E-1,9.780612946E0,3.567360640E-1,9.801279957E0
4.011487790E-1,5.315127969E-1,9.771036148E0,3.615244627E-1,9.792157740E0
4.031487120E-1,5.243301988E-1,9.783007622E0,3.591302633E-1,9.803628656E0
4.051487120E-1,5.243301988E-1,9.773430824E0,3.495534360E-1,9.793725534E0
4.071486780E-1,5.195417404E-1,9.780612946E0,3.615244627E-1,9.801072041E0
4.091495110E-1,5.123591423E-1,9.775824547E0,3.663128614E-1,9.796093230E0
4.111503440E-1,5.291185975E-1,9.768642426E0,3.687070608E-1,9.789907365E0
4.131503100E-1,5.434837937E-1,9.768642426E0,3.663128614E-1,9.790604403E0
4.151502760E-1,5.506663918E-1,9.759065628E0,3.734954596E-1,9.781722459E0
4.171502420E-1,5.219359994E-1,9.761459351E0,3.734954596E-1,9.782535699E0
4.191502080E-1,5.099649429E-1,9.756670952E0,3.663128614E-1,9.776854168E0
4.211501740E-1,5.219359994E-1,9.751882553E0,3.639186621E-1,9.772618242E0
4.231501740E-1,5.267243981E-1,9.754277229E0,3.543418646E-1,9.774912839E0
4.251502070E-1,5.075707436E-1,9.754277229E0,3.567360640E-1,9.773986543E0
4.271502400E-1,5.075707436E-1,9.754277229E0,3.567360640E-1,9.773986543E0
4.291493730E-1,5.075707436E-1,9.754277229E0,3.567360640E-1,9.773986543E0
4.311485390E-1,4.908113480E-1,9.754277229E0,3.495534360E-1,9.772871003E0
4.331485050E-1,4.740519226E-1,9.754277229E0,3.399766386E-1,9.771705767E0
4.351485380E-1,4.644751251E-1,9.766247749E0,3.351882398E-1,9.783030379E0
4.371485710E-1,4.596867263E-1,9.771036148E0,3.208230138E-1,9.787103080E0
4.391485710E-1,4.692635238E-1,9.751882553E0,3.136404157E-1,9.768203105E0
4.411485370E-1,4.716577232E-1,9.756670952E0,3.136404157E-1,9.773098760E0
4.431485030E-1,4.884171486E-1,9.766247749E0,3.232172430E-1,9.783793528E0
4.451484690E-1,4.812345505E-1,9.756670952E0,3.280056417E-1,9.774037163E0
4.471484350E-1,4.764461517E-1,9.756670952E0,3.303998411E-1,9.773883213E0
4.491492680E-1,4.716577232E-1,9.775824547E0,3.375824392E-1,9.793016312E0
4.511501010E-1,4.668693244E-1,9.775824547E0,3.591302633E-1,9.793553343E0
4.531502670E-1,4.620809257E-1,9.783007622E0,3.567360640E-1,9.800409049E0
4.551502670E-1,4.572925270E-1,9.785401344E0,3.423708379E-1,9.802061707E0
4.571503000E-1,4.668693244E-1,9.771036148E0,3.447650373E-1,9.788257113E0
4.591492000E-1,4.764461517E-1,9.773430824E0,3.495534360E-1,9.791278702E0
4.611492330E-1,4.788403511E-1,9.773430824E0,3.447650373E-1,9.791225719E0
4.631493330E-1,4.668693244E-1,9.766247749E0,3.495534360E-1,9.783647054E0
4.651493660E-1,4.501099288E-1,9.768642426E0,3.447650373E-1,9.785082356E0
4.671493990E-1,3.519476354E-1,9.744700432E0,4.237737060E-1,9.760258080E0
4.691485650E-1,3.567360640E-1,9.727940559E0,4.237737060E-1,9.743699108E0
4.711477310E-1,3.567360640E-1,9.727940559E0,4.237737060E-1,9.743699108E0
4.731477310E-1,3.567360640E-1,9.727940559E0,4.237737060E-1,9.743699108E0
4.751477310E-1,3.399766386E-1,9.715970039E0,4.094084799E-1,9.730533039E0
4.771477310E-1,3.399766386E-1,9.682451248E0,3.902548850E-1,9.696274809E0
4.791477310E-1,3.711012602E-1,9.687239647E0,3.591302633E-1,9.700994932E0
4.811477310E-1,4.213795066E-1,9.718363762E0,2.992752194E-1,9.732097439E0
4.831477310E-1,4.644751251E-1,9.768642426E0,2.753331959E-1,9.783553564E0
4.851476970E-1,5.099649429E-1,9.787796021E0,2.825157940E-1,9.805143056E0
4.871476630E-1,5.770025849E-1,9.814131737E0,3.064578176E-1,9.835854316E0
4.891485290E-1,6.153098345E-1,9.842862129E0,3.519476354E-1,9.868353876E0
4.911493620E-1,6.392518282E-1,9.845256805E0,3.806780577E-1,9.873329745E0
4.931493950E-1,6.536170840E-1,9.845256805E0,4.237737060E-1,9.876025568E0
4.951493610E-1,6.488286853E-1,9.821314812E0,4.381389022E-1,9.852470197E0
4.971493270E-1,5.698199868E-1,9.747094154E0,4.501099288E-1,9.774105495E0
4.991492930E-1,5.099649429E-1,9.723152161E0,4.501099288E-1,9.746914954E0
5.011492930E-1,3.782838583E-1,9.680056572E0,4.118026793E-1,9.696193859E0
5.031488930E-1,2.609679997E-1,9.658509254E0,3.734954596E-1,9.669250445E0
5.051489260E-1,1.987187415E-1,9.668086052E0,3.615244627E-1,9.676883640E0
5.071489590E-1,1.532289088E-1,9.756670952E0,3.974374831E-1,9.765964556E0
5.091481250E-1,1.532289088E-1,9.756670952E0,3.974374831E-1,9.765964556E0
5.111472580E-1,1.532289088E-1,9.756670952E0,3.974374831E-1,9.765964556E0
5.131472910E-1,1.819593310E-1,9.771036148E0,3.950432837E-1,9.780711416E0
5.151473240E-1,2.729389966E-1,9.809343338E0,4.141969085E-1,9.821877188E0
5.171473240E-1,3.232172430E-1,9.826103210E0,4.213795066E-1,9.840443810E0
5.191472900E-1,4.261679053E-1,9.845256805E0,4.309563041E-1,9.863894970E0
5.211472560E-1,5.027823448E-1,9.883563995E0,4.165911078E-1,9.905108555E0
5.231472220E-1,5.410895944E-1,9.885957718E0,3.950432837E-1,9.908632456E0
5.251471880E-1,5.961562395E-1,9.864410400E0,3.543418646E-1,9.888758919E0
5.271471540E-1,6.488286853E-1,9.845256805E0,3.184288144E-1,9.871750460E0
5.291477200E-1,6.631938815E-1,9.845256805E0,3.256114423E-1,9.872939304E0
5.311481530E-1,6.871358752E-1,9.821314812E0,3.806780577E-1,9.852679642E0
5.331481530E-1,6.871358752E-1,9.794978142E0,3.758896589E-1,9.826242697E0
5.351481860E-1,6.871358752E-1,9.763854027E0,3.591302633E-1,9.794589104E0
5.371478860E-1,6.655880809E-1,9.739912033E0,3.615244627E-1,9.769319006E0
5.391479190E-1,6.440402865E-1,9.708786964E0,3.351882398E-1,9.735896639E0
5.411479520E-1,6.416460276E-1,9.711181641E0,2.657563984E-1,9.735984026E0
5.431479850E-1,6.703764796E-1,9.696816444E0,2.178723514E-1,9.722403105E0
5.451480180E-1,8.140285611E-1,9.656114578E0,2.537853718E-1,9.693688579E0
5.471480510E-1,3.399766386E-1,9.732728958E0,-5.267243832E-2,9.738807497E0
5.491472170E-1,3.495534360E-1,9.703998566E0,-1.221042871E-1,9.711059943E0
5.511463170E-1,3.495534360E-1,9.703998566E0,-1.221042871E-1,9.711059943E0
5.531463170E-1,4.141969085E-1,9.672874451E0,-4.548983276E-2,9.681845307E0
5.551463170E-1,4.596867263E-1,9.684844971E0,1.388636976E-1,9.696742604E0
5.571463170E-1,5.434837937E-1,9.761459351E0,7.182605267E-1,9.802926169E0
5.591459170E-1,5.434837937E-1,9.859622002E0,7.062895298E-1,9.899816440E0
5.611459170E-1,5.410895944E-1,9.902717590E0,6.464344859E-1,9.938534659E0
5.631463170E-1,3.998316824E-1,9.943418503E0,4.836287498E-1,9.963198967E0
5.651462830E-1,3.591302633E-1,9.960178375E0,3.782838583E-1,9.973827073E0
5.671462490E-1,4.381389022E-1,9.929053307E0,2.346317619E-1,9.941484664E0
5.691470820E-1,4.812345505E-1,9.909899712E0,1.891419291E-1,9.923380153E0
5.711479480E-1,5.458779931E-1,9.847650528E0,2.274491638E-1,9.865390860E0
5.731479140E-1,5.770025849E-1,9.787796021E0,3.184288144E-1,9.809958197E0
5.751478800E-1,5.674257874E-1,9.749488831E0,3.591302633E-1,9.772588144E0
5.771478460E-1,5.530605912E-1,9.680056572E0,3.806780577E-1,9.703313199E0
5.791478460E-1,5.195417404E-1,9.656114578E0,4.237737060E-1,9.679362403E0
5.811478460E-1,4.932055473E-1,9.665691376E0,4.716577232E-1,9.689752447E0
5.831478790E-1,4.429273009E-1,9.627384186E0,4.070142806E-1,9.646158379E0
5.851479120E-1,4.357447028E-1,9.644144058E0,3.543418646E-1,9.660483747E0
5.871479450E-1,3.974374831E-1,9.802161217E0,4.884171486E-1,9.822365926E0
5.891473780E-1,3.974374831E-1,9.802161217E0,4.884171486E-1,9.822365926E0
5.911469440E-1,3.974374831E-1,9.802161217E0,4.884171486E-1,9.822365926E0
5.931469770E-1,3.974374831E-1,9.802161217E0,4.884171486E-1,9.822365926E0
5.951469770E-1,4.141969085E-1,9.869198799E0,3.950432837E-1,9.885782883E0
5.971472770E-1,5.147533417E-1,9.895534515E0,2.968810201E-1,9.913360313E0
5.991472430E-1,4.740519226E-1,9.878775597E0,3.782838583E-1,9.897374965E0
6.011472090E-1,4.740519226E-1,9.852438927E0,4.237737060E-1,9.872935844E0
6.031471750E-1,5.099649429E-1,9.799766541E0,3.902548850E-1,9.820783440E0
6.051471410E-1,5.075707436E-1,9.783007622E0,3.830722570E-1,9.803652918E0
6.071471070E-1,4.860229492E-1,9.766247749E0,4.333505034E-1,9.787931654E0
6.091479400E-1,4.525041282E-1,9.749488831E0,4.333505034E-1,9.769600048E0
6.111488400E-1,4.309563041E-1,9.735123634E0,4.141969085E-1,9.753456546E0
6.131488730E-1,4.285621047E-1,9.732728958E0,3.902548850E-1,9.749973196E0
6.151489060E-1,4.237737060E-1,9.680056572E0,3.375824392E-1,9.695207130E0
6.171489390E-1,4.333505034E-1,9.656114578E0,2.753331959E-1,9.669754380E0
6.191493720E-1,4.477157295E-1,9.648932457E0,2.561795712E-1,9.662710536E0
6.211494050E-1,4.477157295E-1,9.656114578E0,2.896983922E-1,9.670828469E0
6.231494380E-1,4.141969085E-1,9.677662849E0,4.189853072E-1,9.695579714E0
6.251494710E-1,3.998316824E-1,9.694421768E0,4.381389022E-1,9.712550875E0
6.271495040E-1,3.543418646E-1,9.744700432E0,3.184288144E-1,9.756338533E0
6.291486370E-1,3.543418646E-1,9.744700432E0,3.184288144E-1,9.756338533E0
6.311477700E-1,3.543418646E-1,9.744700432E0,3.184288144E-1,9.756338533E0
6.331477700E-1,3.950432837E-1,9.756670952E0,3.208230138E-1,9.769934220E0
6.351477700E-1,4.261679053E-1,9.811738014E0,3.136404157E-1,9.825995739E0
6.371477700E-1,4.836287498E-1,9.828496933E0,3.184288144E-1,9.845539378E0
6.391477700E-1,5.219359994E-1,9.830891609E0,3.256114423E-1,9.850120295E0
6.411477700E-1,5.554547906E-1,9.826103210E0,3.543418646E-1,9.848166961E0
6.431477360E-1,5.746083856E-1,9.797372818E0,3.758896589E-1,9.821404277E0
6.451473020E-1,5.817909837E-1,9.792584419E0,3.902548850E-1,9.817611177E0
6.471472680E-1,6.320692301E-1,9.804554939E0,4.094084799E-1,9.833434007E0
6.491485010E-1,6.392518282E-1,9.792584419E0,4.237737060E-1,9.822572813E0
6.511493340E-1,6.440402865E-1,9.787796021E0,4.189853072E-1,9.817906473E0
6.531493000E-1,6.200982332E-1,9.806949615E0,2.992752194E-1,9.831090898E0
6.551492660E-1,6.033388376E-1,9.828496933E0,2.801215947E-1,9.850981566E0
6.571492660E-1,5.793967843E-1,9.847650528E0,2.753331959E-1,9.868522175E0
6.591492660E-1,5.770025849E-1,9.838073730E0,3.567360640E-1,9.861434344E0
6.611492990E-1,5.291185975E-1,9.857227325E0,2.825157940E-1,9.875460101E0
6.631484320E-1,5.267243981E-1,9.873987198E0,1.987187415E-1,9.890022796E0
6.651484650E-1,4.860229492E-1,9.900322914E0,2.059013397E-1,9.914383868E0
6.671484980E-1,5.985504389E-1,9.747094154E0,5.267243981E-1,9.779649568E0
6.691476640E-1,5.985504389E-1,9.747094154E0,5.267243981E-1,9.779649568E0
6.711468300E-1,5.985504389E-1,9.747094154E0,5.267243981E-1,9.779649568E0
6.731468300E-1,6.009446383E-1,9.699210167E0,5.865794420E-1,9.735496277E0
6.751463960E-1,3.878606856E-1,9.689633369E0,5.746083856E-1,9.714401965E0
6.771463620E-1,3.471592367E-1,9.670479774E0,5.075707436E-1,9.690011696E0
6.791463280E-1,3.495534360E-1,9.615413666E0,4.955997467E-1,9.634520573E0
6.811462940E-1,2.011129409E-1,9.646537781E0,2.849099934E-1,9.652839545E0
6.831462600E-1,2.346317619E-1,9.639355659E0,2.298433632E-1,9.644949848E0
6.851466930E-1,3.184288144E-1,9.682451248E0,2.825157940E-1,9.691804489E0
6.871466590E-1,4.692635238E-1,9.672874451E0,3.543418646E-1,9.690730961E0
6.891475250E-1,5.793967843E-1,9.648932457E0,4.620809257E-1,9.677350721E0
6.911483910E-1,4.740519226E-1,9.732728958E0,2.920926213E-1,9.748643818E0
6.931483910E-1,4.022258818E-1,9.799766541E0,1.053448766E-1,9.808583356E0
6.951483910E-1,7.493851185E-1,9.763854027E0,3.974374831E-1,9.800631616E0
6.971483910E-1,7.038952708E-1,9.730335236E0,4.572925270E-1,9.766473714E0
6.991483910E-1,6.368576288E-1,9.751882553E0,3.256114423E-1,9.778078737E0
7.011483910E-1,6.799532771E-1,9.790189743E0,3.064578176E-1,9.818557331E0
7.031479910E-1,6.344634295E-1,9.811738014E0,2.968810201E-1,9.836711089E0
7.051483910E-1,6.224924326E-1,9.826103210E0,2.705447972E-1,9.849517532E0
7.071484240E-1,5.482721925E-1,9.895534515E0,2.705447972E-1,9.914403675E0
7.091471900E-1,5.482721925E-1,9.895534515E0,2.705447972E-1,9.914403675E0
7.111463560E-1,5.482721925E-1,9.895534515E0,2.705447972E-1,9.914403675E0
7.131463890E-1,5.865794420E-1,9.893140793E0,2.992752194E-1,9.915032821E0
7.151464220E-1,6.536170840E-1,9.859622002E0,3.615244627E-1,9.887874455E0
7.171464550E-1,6.392518282E-1,9.799766541E0,4.405331016E-1,9.830469804E0
7.191464880E-1,5.458779931E-1,9.771036148E0,3.950432837E-1,9.794242665E0
7.211464880E-1,5.243301988E-1,9.749488831E0,4.094084799E-1,9.772157895E0
7.231473540E-1,4.189853072E-1,9.780612946E0,3.399766386E-1,9.795484796E0
7.251465540E-1,5.051765442E-1,9.737517357E0,2.466027737E-1,9.753730596E0
7.271465200E-1,5.267243981E-1,9.732728958E0,2.633621991E-1,9.750528766E0
7.291473530E-1,5.339069963E-1,9.730335236E0,2.920926213E-1,9.749348623E0
7.311481860E-1,5.219359994E-1,9.713575363E0,4.141969085E-1,9.736401933E0
7.331481520E-1,4.357447028E-1,9.689633369E0,4.525041282E-1,9.709975709E0
7.351485520E-1,3.998316824E-1,9.682451248E0,4.357447028E-1,9.700494884E0
7.371490180E-1,3.734954596E-1,9.648932457E0,4.118026793E-1,9.664935482E0
7.391490510E-1,3.615244627E-1,9.663297653E0,3.830722570E-1,9.677642576E0
7.411490840E-1,3.471592367E-1,9.680056572E0,3.806780577E-1,9.693757298E0
7.431491170E-1,3.591302633E-1,9.713575363E0,3.854664862E-1,9.727852039E0
7.451486830E-1,3.471592367E-1,9.723152161E0,4.405331016E-1,9.739316038E0
7.471487160E-1,4.022258818E-1,9.794978142E0,2.681505978E-1,9.806899979E0
7.491478820E-1,4.022258818E-1,9.794978142E0,2.681505978E-1,9.806899979E0
7.511470480E-1,4.022258818E-1,9.794978142E0,2.681505978E-1,9.806899979E0
7.531470810E-1,3.998316824E-1,9.797372818E0,2.920926213E-1,9.809877553E0
7.551470810E-1,4.309563041E-1,9.787796021E0,3.543418646E-1,9.803684635E0
7.571470810E-1,4.213795066E-1,9.785401344E0,3.711012602E-1,9.801497656E0
7.591470810E-1,4.309563041E-1,9.775824547E0,3.998316824E-1,9.793484277E0
7.611470810E-1,4.309563041E-1,9.771036148E0,4.141969085E-1,9.789301805E0
7.631474810E-1,4.405331016E-1,9.766247749E0,4.141969085E-1,9.784948829E0
7.651474810E-1,4.309563041E-1,9.751882553E0,3.854664862E-1,9.769008193E0
7.671474470E-1,4.429273009E-1,9.756670952E0,3.687070608E-1,9.773676767E0
7.691483130E-1,4.429273009E-1,9.747094154E0,3.519476354E-1,9.763498153E0
7.711491460E-1,4.525041282E-1,9.747094154E0,3.543418646E-1,9.764023894E0
7.731491120E-1,4.477157295E-1,9.739912033E0,3.591302633E-1,9.756808409E0
7.751490780E-1,4.644751251E-1,9.730335236E0,3.639186621E-1,9.748209976E0
7.771490440E-1,4.572925270E-1,9.706393242E0,3.830722570E-1,9.724707223E0
7.791490100E-1,4.525041282E-1,9.711181641E0,3.734954596E-1,9.728890363E0
7.811489760E-1,4.501099288E-1,9.737517357E0,3.639186621E-1,9.754705532E0
7.831489760E-1,4.788403511E-1,9.763854027E0,3.519476354E-1,9.781922136E0
7.851497760E-1,4.836287498E-1,9.763854027E0,3.399766386E-1,9.781734322E0
7.871498090E-1,5.243301988E-1,9.756670952E0,3.639186621E-1,9.777524585E0
7.891489750E-1,5.243301988E-1,9.756670952E0,3.639186621E-1,9.777524585E0
7.911481410E-1,5.243301988E-1,9.756670952E0,3.639186621E-1,9.777524585E0
7.931481740E-1,5.267243981E-1,9.763854027E0,3.495534360E-1,9.784297198E0
7.951482070E-1,5.363011956E-1,9.756670952E0,3.734954596E-1,9.778534956E0
7.971477730E-1,5.363011956E-1,9.773430824E0,3.663128614E-1,9.794986175E0
7.991477730E-1,5.410895944E-1,9.778219223E0,3.543418646E-1,9.799587097E0
8.011477390E-1,5.482721925E-1,9.778219223E0,3.375824392E-1,9.799394648E0
8.031477050E-1,5.482721925E-1,9.785401344E0,2.968810201E-1,9.805244526E0
8.051476710E-1,5.674257874E-1,9.797372818E0,2.920926213E-1,9.818136496E0
8.071476370E-1,6.033388376E-1,9.787796021E0,2.992752194E-1,9.810939524E0
8.091484700E-1,6.177040339E-1,9.785401344E0,2.920926213E-1,9.809228096E0
8.111493030E-1,6.248866320E-1,9.790189743E0,2.873041928E-1,9.814318224E0
8.131492690E-1,6.440402865E-1,9.818920135E0,3.064578176E-1,9.844790344E0
8.151492690E-1,7.038952708E-1,9.785401344E0,3.591302633E-1,9.817256367E0
8.171493020E-1,7.086837292E-1,9.783007622E0,3.950432837E-1,9.816594621E0
8.191493350E-1,6.775590777E-1,9.783007622E0,3.950432837E-1,9.814396753E0
8.211493680E-1,6.153098345E-1,9.706393242E0,5.339069963E-1,9.740520142E0
8.231494010E-1,5.003881454E-1,9.713575363E0,5.195417404E-1,9.740321260E0
8.251494340E-1,4.764461517E-1,9.756670952E0,3.495534360E-1,9.774549432E0
8.271494670E-1,2.585737705E-1,9.723152161E0,3.926490843E-1,9.734511885E0
8.291486000E-1,2.585737705E-1,9.723152161E0,3.926490843E-1,9.734511885E0
8.311477660E-1,2.585737705E-1,9.723152161E0,3.926490843E-1,9.734511885E0
8.331477660E-1,2.322375625E-1,9.720758438E0,4.022258818E-1,9.731847952E0
8.351477660E-1,2.178723514E-1,9.699210167E0,4.046200812E-1,9.710090815E0
8.371477660E-1,2.202665508E-1,9.680056572E0,4.165911078E-1,9.691520043E0
8.391477660E-1,3.758896589E-1,9.672874451E0,4.237737060E-1,9.689446699E0
8.411477660E-1,4.525041282E-1,9.682451248E0,3.112462163E-1,9.698015074E0
8.431477660E-1,4.740519226E-1,9.703998566E0,2.849099934E-1,9.719747275E0
8.451477320E-1,5.291185975E-1,9.742305756E0,2.513911724E-1,9.759901918E0
8.471476980E-1,6.081272364E-1,9.775824547E0,2.442085743E-1,9.797765160E0
8.491485310E-1,6.200982332E-1,9.787796021E0,2.394201756E-1,9.810341216E0
8.511493640E-1,6.607996821E-1,9.797372818E0,2.585737705E-1,9.823035720E0
8.531493300E-1,7.350199223E-1,9.802161217E0,3.184288144E-1,9.834836842E0
8.551492960E-1,7.805097699E-1,9.785401344E0,3.447650373E-1,9.822532153E0
8.571492620E-1,7.685387731E-1,9.830891609E0,3.615244627E-1,9.867511420E0
8.591488950E-1,6.823474765E-1,9.866804123E0,3.591302633E-1,9.896888209E0
8.592488950E-1,6.392518282E-1,9.833285332E0,3.830722570E-1,9.861485064E0
8.612489280E-1,6.248866320E-1,9.823708534E0,3.782838583E-1,9.850828967E0
8.632489610E-1,6.057330370E-1,9.783007622E0,3.663128614E-1,9.808584799E0
8.652489940E-1,4.453215301E-1,9.761459351E0,3.591302633E-1,9.778209164E0
8.672481600E-1,4.237737060E-1,9.761459351E0,3.471592367E-1,9.776819132E0
8.692473260E-1,4.237737060E-1,9.761459351E0,3.471592367E-1,9.776819132E0
8.712478920E-1,4.070142806E-1,9.747094154E0,3.519476354E-1,9.761934860E0
8.732479250E-1,4.022258818E-1,9.727940559E0,3.687070608E-1,9.743231398E0
8.752479250E-1,3.782838583E-1,9.718363762E0,3.974374831E-1,9.733840426E0
8.772478910E-1,3.902548850E-1,9.701604843E0,4.094084799E-1,9.718078550E0
8.792478570E-1,3.758896589E-1,9.723152161E0,3.854664862E-1,9.738047309E0
8.812478230E-1,3.567360640E-1,9.751882553E0,3.567360640E-1,9.764923685E0
8.832477890E-1,4.213795066E-1,9.747094154E0,3.615244627E-1,9.762894298E0
8.852477550E-1,4.644751251E-1,9.756670952E0,3.663128614E-1,9.774586964E0
8.872485880E-1,4.932055473E-1,9.766247749E0,3.806780577E-1,9.786100480E0
8.892494210E-1,5.003881454E-1,9.802161217E0,3.639186621E-1,9.821669390E0
8.912494210E-1,4.716577232E-1,9.821314812E0,4.213795066E-1,9.841658718E0
8.932494540E-1,4.740519226E-1,9.821314812E0,4.189853072E-1,9.841671532E0
8.952494870E-1,5.195417404E-1,9.830891609E0,3.423708379E-1,9.850561976E0
8.972495200E-1,5.051765442E-1,9.864410400E0,3.016694188E-1,9.881943145E0
8.992495530E-1,4.860229492E-1,9.859622002E0,3.208230138E-1,9.876805745E0
9.012495860E-1,4.716577232E-1,9.857227325E0,3.734954596E-1,9.875570384E0
9.032496190E-1,4.764461517E-1,9.852438927E0,3.663128614E-1,9.870751686E0
9.052496520E-1,4.333505034E-1,9.814131737E0,3.711012602E-1,9.830701427E0
9.072488180E-1,4.333505034E-1,9.814131737E0,3.711012602E-1,9.830701427E0
9.092479510E-1,4.333505034E-1,9.814131737E0,3.711012602E-1,9.830701427E0
9.112478510E-1,4.261679053E-1,9.799766541E0,3.663128614E-1,9.815866159E0
9.132478510E-1,4.046200812E-1,9.768642426E0,3.782838583E-1,9.784333954E0
9.152478510E-1,3.950432837E-1,9.756670952E0,3.591302633E-1,9.771267154E0
9.172478510E-1,3.950432837E-1,9.747094154E0,3.591302633E-1,9.761704677E0
9.192478510E-1,3.926490843E-1,9.720758438E0,3.567360640E-1,9.735223600E0
9.212478170E-1,4.022258818E-1,9.701604843E0,3.543418646E-1,9.716402644E0
9.232477830E-1,4.429273009E-1,9.715970039E0,4.668693244E-1,9.737259644E0
9.252474160E-1,4.884171486E-1,9.735123634E0,4.932055473E-1,9.759837867E0
9.272482490E-1,4.213795066E-1,9.768642426E0,3.208230138E-1,9.782988446E0
9.292490820E-1,3.974374831E-1,9.783007622E0,2.992752194E-1,9.795650072E0
9.312485150E-1,4.309563041E-1,9.783007622E0,2.968810201E-1,9.796994427E0
9.332484810E-1,3.878606856E-1,9.771036148E0,3.184288144E-1,9.783914361E0
9.352484470E-1,3.782838583E-1,9.806949615E0,3.064578176E-1,9.819026216E0
9.372484470E-1,3.854664862E-1,9.818920135E0,3.136404157E-1,9.831487545E0
9.392484800E-1,4.692635238E-1,9.742305756E0,3.687070608E-1,9.760567329E0
9.412485130E-1,5.267243981E-1,9.730335236E0,5.075707436E-1,9.757791269E0
9.432485460E-1,4.477157295E-1,9.785401344E0,4.525041282E-1,9.806084276E0
9.452485790E-1,4.620809257E-1,9.859622002E0,3.471592367E-1,9.876547187E0
9.472477450E-1,4.884171486E-1,9.871592522E0,3.495534360E-1,9.889847210E0
9.492469110E-1,4.884171486E-1,9.871592522E0,3.495534360E-1,9.889847210E0
9.512469440E-1,4.884171486E-1,9.871592522E0,3.495534360E-1,9.889847210E0
9.532469440E-1,5.458779931E-1,9.876380920E0,3.423708379E-1,9.897378474E0
9.552469100E-1,5.722141862E-1,9.878775597E0,3.806780577E-1,9.902653793E0
9.572464760E-1,5.865794420E-1,9.871592522E0,3.926490843E-1,9.896796838E0
9.592464420E-1,6.751648784E-1,9.783007622E0,4.309563041E-1,9.815742920E0
9.612460420E-1,6.560112834E-1,9.730335236E0,4.261679053E-1,9.761731080E0
9.632460080E-1,6.009446383E-1,9.780612946E0,3.950432837E-1,9.807017041E0
9.652459740E-1,5.554547906E-1,9.859622002E0,2.825157940E-1,9.879296089E0
9.672468070E-1,5.243301988E-1,9.914688110E0,2.992752194E-1,9.933052307E0
9.692476730E-1,5.171475410E-1,9.933841705E0,3.256114423E-1,9.952621535E0
9.712478060E-1,5.578489900E-1,9.957783699E0,3.734954596E-1,9.980388297E0
9.732478390E-1,5.865794420E-1,9.950601578E0,3.830722570E-1,9.975233910E0
9.752478720E-1,5.985504389E-1,9.943418503E0,3.950432837E-1,9.969247381E0
9.772482380E-1,5.793967843E-1,9.941024780E0,4.333505034E-1,9.967319949E0
9.792482710E-1,5.434837937E-1,9.933841705E0,4.429273009E-1,9.958552618E0
9.812483040E-1,5.410895944E-1,9.931447983E0,4.405331016E-1,9.955928204E0
9.832483370E-1,5.339069963E-1,9.885957718E0,3.950432837E-1,9.908242825E0
9.852487030E-1,4.477157295E-1,9.739912033E0,2.801215947E-1,9.754219799E0
9.872478360E-1,4.477157295E-1,9.739912033E0,2.801215947E-1,9.754219799E0
9.892469690E-1,4.477157295E-1,9.739912033E0,2.801215947E-1,9.754219799E0
9.912466690E-1,4.309563041E-1,9.718363762E0,2.777273953E-1,9.731878033E0
9.932466690E-1,4.261679053E-1,9.660902977E0,2.849099934E-1,9.674494256E0
9.952466690E-1,4.692635238E-1,9.565135002E0,2.585737705E-1,9.580129240E0
9.972466690E-1,4.118026793E-1,9.498097420E0,1.915361285E-1,9.508949581E0
9.992466350E-1,8.092401624E-1,8.945036888E0,2.825157940E-1,8.986009667E0
1.001246601E0,6.057330370E-1,9.091083527E0,4.644751251E-1,9.123072363E0
1.003246801E0,2.561795712E-1,9.562741280E0,2.873041928E-1,9.570485487E0
1.005246767E0,1.388636976E-1,9.826103210E0,2.394201756E-1,9.830000481E0
1.007247600E0,1.316810995E-1,9.962572098E0,3.136404157E-1,9.968377653E0
1.009248433E0,2.346317619E-1,9.988908768E0,4.740519226E-1,1.000290336E1
1.011248399E0,3.591302633E-1,9.897929192E0,4.572925270E-1,9.914993358E0
1.013248365E0,3.399766386E-1,1.001524544E1,4.357447028E-1,1.003048347E1
1.015248365E0,5.075707436E-1,1.002003384E1,4.189853072E-1,1.004162610E1
1.017248798E0,4.213795066E-1,1.007509995E1,1.795651317E-1,1.008550659E1
1.019248831E0,3.902548850E-1,1.007749462E1,2.968810201E-1,1.008941698E1
1.021249231E0,4.955997467E-1,1.010383034E1,3.447650373E-1,1.012185109E1
1.023249231E0,2.920926213E-1,1.016368580E1,2.585737705E-1,1.017116943E1
1.025249264E0,3.998316824E-1,1.009185982E1,4.022258818E-1,1.010778342E1
1.027248430E0,5.027823448E-1,1.009185982E1,4.596867263E-1,1.011482756E1
1.029247596E0,5.027823448E-1,1.001524544E1,4.596867263E-1,1.003838847E1
1.031247596E0,7.948749661E-1,9.754277229E0,4.644751251E-1,9.797626632E0
1.033247562E0,1.283292055E0,9.141361237E0,3.663128614E-1,9.238263304E0
1.035247528E0,1.055842996E0,8.978555679E0,6.009446383E-1,9.060375322E0
1.037247094E0,1.106121182E0,8.966584206E0,1.915361360E-2,9.034572665E0
1.039247060E0,8.714894056E-1,9.141361237E0,4.070143029E-2,9.182899087E0
1.041247026E0,2.729389966E-1,9.632172585E0,6.943184882E-2,9.636288973E0
1.043246992E0,7.661445439E-2,9.912294388E0,6.033388376E-1,9.930934878E0
1.045246958E0,7.182605099E-3,1.015171432E1,5.722141862E-1,1.016783086E1
1.047247824E0,-1.244984865E-1,1.022354031E1,5.339069963E-1,1.023822899E1
1.049248724E0,8.140286058E-2,1.029536629E1,5.554547906E-1,1.031066067E1
1.051249057E0,3.232172430E-1,1.031451988E1,4.477157295E-1,1.032929035E1
1.053249090E0,4.309563041E-1,1.028818417E1,3.950432837E-1,1.030478122E1
1.055248823E0,5.674257874E-1,1.026184750E1,2.729389966E-1,1.028114691E1
1.057248856E0,7.182605267E-1,1.009185982E1,1.747767180E-1,1.011889716E1
1.059248889E0,1.307234168E0,9.435848236E0,1.029506698E-1,9.526525702E0
1.061248922E0,1.156399369E0,8.612242699E0,3.711012602E-1,8.697453647E0
1.063248722E0,9.744400978E-1,8.609848976E0,2.226607651E-1,8.667676200E0
1.065248722E0,1.053448796E0,8.830115318E0,6.991068721E-1,8.920170476E0
1.067247855E0,1.053448796E0,8.830115318E0,6.991068721E-1,8.920170476E0
1.069246955E0,1.053448796E0,8.830115318E0,6.991068721E-1,8.920170476E0
1.071246955E0,1.053448796E0,8.830115318E0,6.991068721E-1,8.920170476E0
1.073246955E0,7.685387731E-1,9.062353134E0,4.405331016E-1,9.105545870E0
1.075246955E0,2.442085743E-1,9.562741280E0,6.703764945E-2,9.566093908E0
1.077246921E0,6.943184882E-2,9.921871185E0,1.915361360E-2,9.922132606E0
1.079246887E0,4.070143029E-2,1.047972012E1,2.729389966E-1,1.048335280E1
1.081246853E0,3.854664862E-1,1.059703636E1,4.788403511E-1,1.061485055E1
1.083246853E0,1.221042871E0,1.051563358E1,5.602431893E-1,1.060110220E1
1.085246819E0,1.592144132E0,9.397541046E0,8.212111592E-1,9.566770010E0
1.087247652E0,8.020575643E-1,9.756670952E0,3.351882398E-1,9.795319063E0
1.089248485E0,3.351882473E-2,1.020438671E1,2.394201700E-3,1.020444204E1
1.091248451E0,-2.035071403E-1,1.053718090E1,8.619125932E-2,1.053949835E1
1.093248451E0,-2.346317619E-1,1.076463032E1,3.974374831E-1,1.077451969E1
1.095248484E0,9.816227108E-2,1.058985329E1,6.177040339E-1,1.060830744E1
1.097248917E0,7.326257229E-1,9.931447983E0,6.607996821E-1,9.980333447E0
1.099248950E0,1.029506683E0,9.397541046E0,9.481038451E-1,9.501187432E0
1.101248983E0,2.873041928E-1,9.627384186E0,1.891419291E-1,9.633527113E0
1.103249016E0,-1.005564705E-1,9.871592522E0,-4.070143029E-2,9.872188568E0
1.105249049E0,9.935936928E-1,9.445425034E0,4.692635238E-1,9.509126708E0
1.107248215E0,9.935936928E-1,9.445425034E0,4.692635238E-1,9.509126708E0
1.109247315E0,9.935936928E-1,9.445425034E0,4.692635238E-1,9.509126708E0
1.111247281E0,7.254431248E-1,9.510068893E0,6.703764945E-2,9.537933326E0
1.113247247E0,2.394201700E-3,1.003679276E1,0.000000000E0,1.003679304E1
1.115247513E0,2.873041928E-1,1.022593498E1,2.753331959E-1,1.023367472E1
1.117247479E0,1.036689281E0,9.775824547E0,7.422025204E-1,9.858617287E0
1.119247445E0,1.307234168E0,9.577106476E0,7.637503147E-1,9.696037550E0
1.121247411E0,4.788403511E-1,1.000566864E1,2.202665508E-1,1.001954143E1
1.123247377E0,3.830722719E-2,1.029297256E1,4.788403399E-3,1.029304496E1
1.125247377E0,1.412579060E0,1.000088024E1,1.010353088E0,1.015055656E1
1.127248277E0,1.297657371E0,9.742305756E0,7.589619160E-1,9.857609207E0
1.129249210E0,1.012747288E0,9.859622002E0,2.633621991E-1,9.914996860E0
1.131249243E0,3.112462163E-2,1.033127975E1,-1.651999205E-1,1.033264734E1
1.133249276E0,6.368576288E-1,1.024030018E1,4.572925270E-1,1.027027029E1
1.135249309E0,1.091755986E0,9.981725693E0,1.103726983E0,1.010173214E1
1.137249342E0,1.309628367E0,9.751882553E0,6.057330370E-1,9.858055199E0
1.139249375E0,2.777273953E-1,1.022593498E1,1.508347094E-1,1.023081765E1
1.141249408E0,-1.963245422E-1,1.043183613E1,-1.604115069E-1,1.043491640E1
1.143249408E0,3.830722570E-1,1.021635818E1,4.572925270E-1,1.023375959E1
1.145249408E0,-1.939303428E-1,1.027621269E1,-2.011129409E-1,1.028000986E1
1.147248541E0,-1.939303428E-1,1.027621269E1,-2.011129409E-1,1.028000986E1
1.149247674E0,-1.939303428E-1,1.027621269E1,-2.011129409E-1,1.028000986E1
1.151247674E0,-5.147533417E-1,1.041268253E1,-2.059013397E-1,1.042743132E1
1.153247674E0,5.339069963E-1,9.929053307E0,8.283938169E-1,9.977845086E0
1.155247640E0,9.864110947E-1,9.739912033E0,1.266532660E0,9.871322011E0
1.157247606E0,1.204283476E0,9.562741280E0,4.979939461E-1,9.651130371E0
1.159247572E0,1.604115069E-1,9.804554939E0,-2.059013397E-1,9.808028587E0
1.161247538E0,-3.878606856E-1,9.917082787E0,-4.357447028E-1,9.934225705E0
1.163247504E0,-5.363011956E-1,1.002482224E1,1.005564705E-1,1.003966092E1
1.165247470E0,3.998316824E-1,9.785401344E0,9.840168953E-1,9.842877328E0
1.167248303E0,3.926490843E-1,9.809343338E0,8.954314590E-1,9.857950473E0
1.169249169E0,2.705447972E-1,9.727940559E0,2.394201756E-1,9.734646580E0
1.171249169E0,8.307880163E-1,9.323320389E0,2.394201756E-1,9.363323866E0
1.173249202E0,4.405331016E-1,9.452607155E0,1.867477298E-1,9.464709512E0
1.175249235E0,-1.580173075E-1,9.455001831E0,-1.053448766E-1,9.456908937E0
1.177249268E0,4.764461517E-1,9.134179115E0,7.876923680E-1,9.180451422E0
1.179249301E0,4.237737060E-1,9.119813919E0,8.523358107E-1,9.169354743E0
1.181249334E0,4.668693244E-1,8.877999306E0,3.112462163E-2,8.890320994E0
1.183249367E0,9.768342972E-1,8.722375870E0,2.873042040E-2,8.776951150E0
1.185249400E0,5.171475410E-1,9.486125946E0,9.289502501E-1,9.545521233E0
1.187248533E0,5.171475410E-1,9.486125946E0,9.289502501E-1,9.545521233E0
1.189247633E0,5.171475410E-1,9.486125946E0,9.289502501E-1,9.545521233E0
1.191247599E0,7.781155705E-1,9.431059837E0,1.168370485E0,9.534958998E0
1.193247565E0,7.302315235E-1,9.478943825E0,9.935936928E-1,9.558809682E0
1.195247531E0,9.457096457E-1,9.474155426E0,1.125274822E-1,9.521903707E0
1.197247497E0,1.144428372E0,9.340080261E0,-2.873042040E-2,9.409975612E0
1.199247463E0,5.770025849E-1,9.603442192E0,-7.182604820E-2,9.621028682E0
1.201247429E0,-3.711012602E-1,1.011580181E1,-1.699883193E-1,1.012403370E1
1.203247429E0,-4.501099288E-1,1.054196930E1,2.753331959E-1,1.055516575E1
1.205247462E0,-1.197100803E-2,1.060900688E1,7.733271718E-1,1.063716152E1
1.207248362E0,3.184288144E-1,1.039831734E1,1.194706678E0,1.047156743E1
1.209249262E0,7.326257229E-1,1.012298393E1,1.072602391E0,1.020597962E1
1.211249295E0,7.972691655E-1,1.005834103E1,2.825157940E-1,1.009384354E1
1.213249328E0,9.026140571E-1,9.938630104E0,-4.979939461E-1,9.991950683E0
1.215249361E0,1.388636947E0,9.447818756E0,9.576806426E-2,9.549804361E0
1.217249394E0,2.513911724E-1,9.897929192E0,-8.619125932E-2,9.901496288E0
1.219249427E0,-1.460463107E-1,1.000088024E1,-1.771709323E-1,1.000351562E1
1.221249427E0,1.053448766E-1,1.000806236E1,6.967126727E-1,1.003283700E1
1.223249427E0,2.633621991E-1,9.890746117E0,9.648633003E-1,9.941186025E0
1.225249427E0,5.746083856E-1,9.478943825E0,-2.106897533E-1,9.498681014E0
1.227248560E0,5.746083856E-1,9.478943825E0,-2.106897533E-1,9.498681014E0
1.229247693E0,5.746083856E-1,9.478943825E0,-2.106897533E-1,9.498681014E0
1.231247693E0,6.607996821E-1,9.251494408E0,-1.173158810E-1,9.275805518E0
1.233247659E0,-1.086967587E0,9.378387451E0,6.153098345E-1,9.461197383E0
1.235247625E0,-2.272097349E0,1.007270622E1,-8.140286058E-2,1.032610592E1
1.237247591E0,-2.138022184E0,1.033127975E1,-1.173158810E-1,1.055084088E1
1.239247557E0,-1.266532660E0,1.065928555E1,2.394201607E-2,1.073429302E1
1.241247523E0,-3.543418646E-1,1.064731407E1,2.753331959E-1,1.065676609E1
1.243247489E0,8.858546615E-2,1.052281570E1,3.591302633E-1,1.052931490E1
1.245247455E0,4.884171486E-1,1.013734913E1,5.698199868E-1,1.016509191E1
1.247248288E0,5.482721925E-1,1.008946514E1,5.051765442E-1,1.011697151E1
1.249249154E0,5.841852427E-1,9.895534515E0,6.488286853E-1,9.933974754E0
1.251249154E0,8.116343617E-1,9.462183952E0,3.399766386E-1,9.503013185E0
1.253249187E0,1.340752959E0,9.107842445E0,-2.585737705E-1,9.209629357E0
1.255249220E0,1.479616642E0,8.959402084E0,-1.699883193E-1,9.082348107E0
1.257249253E0,1.367089152E0,8.971372604E0,6.943184882E-2,9.075201372E0
1.259249286E0,1.113303781E0,8.866027832E0,5.386953950E-1,8.951876203E0
1.261249319E0,1.070208192E0,8.866027832E0,7.326257229E-1,8.960387020E0
1.263249352E0,8.307880163E-1,8.887576103E0,7.326257229E-1,8.956336202E0
1.265249352E0,1.467645645E0,9.541193008E0,4.141969085E-1,9.662293043E0
1.267248452E0,1.467645645E0,9.541193008E0,4.141969085E-1,9.662293043E0
1.269247552E0,1.467645645E0,9.541193008E0,4.141969085E-1,9.662293043E0
1.271247518E0,1.453280449E0,9.574711800E0,4.309563041E-1,9.693959637E0
1.273247484E0,1.108515382E0,9.601048470E0,4.285621047E-1,9.674327033E0
1.275247450E0,3.016694188E-1,9.814131737E0,2.896983922E-1,9.823039822E0
1.277247416E0,3.591302410E-2,9.878775597E0,2.250549644E-1,9.881404089E0
1.279247382E0,-1.149216816E-1,9.998485565E0,3.447650373E-1,1.000508788E1
1.281247382E0,3.327940404E-1,9.955389977E0,2.944868207E-1,9.965303003E0
1.283247415E0,7.493851185E-1,9.854833603E0,1.029506698E-1,9.883821237E0
1.285247448E0,1.012747288E0,9.763854027E0,7.661445439E-2,9.816535657E0
1.287248348E0,6.296750307E-1,9.804554939E0,2.513911724E-1,9.827969563E0
1.289249248E0,3.256114423E-1,9.835680008E0,4.046200812E-1,9.849382795E0
1.291249281E0,-4.788403213E-2,9.895534515E0,5.674257874E-1,9.911905379E0
1.293249314E0,-2.585737705E-1,9.921871185E0,5.937620401E-1,9.942984541E0
1.295249347E0,-3.974374831E-1,9.933841705E0,5.554547906E-1,9.957293689E0
1.297249380E0,-6.344634295E-1,9.943418503E0,4.644751251E-1,9.974460011E0
1.299249380E0,-6.799532771E-1,9.876380920E0,3.615244627E-1,9.906358386E0
1.301249380E0,-5.554547906E-1,9.756670952E0,3.016694188E-1,9.777124451E0
1.303249380E0,-2.154781520E-1,9.548376083E0,3.112462163E-1,9.555877295E0
1.305249380E0,8.954314590E-1,9.773430824E0,2.274491638E-1,9.816999577E0
1.307248513E0,8.954314590E-1,9.773430824E0,2.274491638E-1,9.816999577E0
1.309247646E0,8.954314590E-1,9.773430824E0,2.274491638E-1,9.816999577E0
1.311247646E0,1.067813993E0,9.859622002E0,2.681505978E-1,9.920901042E0
1.313247612E0,1.165976286E0,9.938630104E0,2.681505978E-1,1.001038330E1
1.315247578E0,1.189918280E0,1.006073475E1,2.681505978E-1,1.013440644E1
1.317247544E0,1.086967587E0,1.018762779E1,2.154781520E-1,1.024771630E1
1.319247510E0,9.409212470E-1,1.032649136E1,1.580173075E-1,1.037047376E1
1.321247476E0,8.834604025E-1,1.036240387E1,1.436520964E-1,1.040098804E1
1.323247442E0,8.451532125E-1,1.037437534E1,1.580173075E-1,1.040994319E1
1.325247408E0,9.313444495E-1,1.028100109E1,1.963245422E-1,1.032496631E1
1.327248274E0,1.003170490E0,1.021635818E1,2.513911724E-1,1.026856967E1
1.329249140E0,1.206677675E0,1.003679276E1,3.734954596E-1,1.011596652E1
1.331249173E0,1.297657371E0,9.790189743E0,4.692635238E-1,9.886957981E0
1.333249206E0,1.391031146E0,9.696816444E0,4.668693244E-1,9.807200608E0
1.335249239E0,1.628057122E0,9.483732224E0,4.165911078E-1,9.631474188E0
1.337249272E0,2.398990154E0,8.973767281E0,5.075707436E-1,9.302756636E0
1.339249305E0,3.517082214E0,8.734347343E0,3.519476354E-1,9.422449679E0
1.341249338E0,4.010287762E0,8.684068680E0,-8.140286058E-2,9.565672124E0
1.343249338E0,2.829946518E0,8.820538521E0,3.950432837E-1,9.271815156E0
1.345249304E0,1.374271750E0,9.565135002E0,5.554547906E-1,9.679305785E0
1.347248404E0,1.374271750E0,9.629778862E0,5.506663918E-1,9.742920366E0
1.349247504E0,1.374271750E0,9.629778862E0,5.506663918E-1,9.742920366E0
1.351247470E0,1.333570361E0,9.682451248E0,5.099649429E-1,9.787151594E0
1.353247436E0,1.288080573E0,9.756670952E0,4.141969085E-1,9.850042574E0
1.355247402E0,1.060631394E0,9.945813179E0,2.418143749E-1,1.000512933E1
1.357247368E0,7.398083210E-1,1.017086792E1,1.149216816E-1,1.019838603E1
1.359247368E0,7.182605267E-1,1.020438671E1,8.858546615E-2,1.023001729E1
1.361247401E0,8.403648138E-1,1.021156979E1,1.675941199E-1,1.024746107E1
1.363247434E0,9.433154464E-1,1.021875191E1,3.064578176E-1,1.026677413E1
1.365247467E0,8.643068075E-1,1.022593498E1,3.974374831E-1,1.027008905E1
1.367248367E0,8.116343617E-1,1.021156979E1,4.165911078E-1,1.025224151E1
1.369249267E0,8.044517636E-1,1.011819553E1,3.830722570E-1,1.015735043E1
1.371249300E0,8.547300100E-1,1.005355263E1,3.471592367E-1,1.009579137E1
1.373249333E0,9.744400978E-1,9.909899712E0,2.944868207E-1,9.962046390E0
1.375249366E0,1.067813993E0,9.787796021E0,2.657563984E-1,9.849457047E0
1.377249366E0,1.197100878E0,9.718363762E0,2.370259613E-1,9.794683559E0
1.379249366E0,1.259350061E0,9.610625267E0,2.226607651E-1,9.695342099E0
1.381249366E0,1.414973259E0,9.531616211E0,2.298433632E-1,9.638811384E0
1.383249366E0,1.541865945E0,9.452607155E0,2.322375625E-1,9.580347953E0
1.385249366E0,1.575384736E0,9.320926666E0,4.381389022E-1,9.463269873E0
1.387248499E0,1.575384736E0,9.320926666E0,4.381389022E-1,9.463269873E0
1.389247632E0,1.575384736E0,9.320926666E0,4.381389022E-1,9.463269873E0
1.391247598E0,1.505952835E0,9.316138268E0,4.716577232E-1,9.448851103E0
1.393247564E0,1.343147159E0,9.299378395E0,4.955997467E-1,9.408937343E0
1.395247530E0,1.201889277E0,9.289801598E0,4.812345505E-1,9.379580921E0
1.397247496E0,1.127668977E0,9.296984673E0,4.764461517E-1,9.377236387E0
1.399247462E0,9.672574997E-1,9.335291862E0,4.788403511E-1,9.397475688E0
1.401247428E0,7.876923680E-1,9.404723167E0,4.477157295E-1,9.448265793E0
1.403247394E0,7.469909191E-1,9.433453560E0,4.165911078E-1,9.472148101E0
1.405247394E0,6.895300746E-1,9.459790230E0,4.237737060E-1,9.494349218E0
1.407248260E0,6.440402865E-1,9.433453560E0,4.932055473E-1,9.468267300E0
1.409249160E0,8.379706144E-1,9.373599052E0,5.434837937E-1,9.426660521E0
1.411249193E0,9.050082564E-1,9.328108788E0,5.147533417E-1,9.386033481E0
1.413249226E0,1.371877551E0,9.155726433E0,4.141969085E-1,9.267196642E0
1.415249259E0,2.956839085E0,8.892364502E0,4.309562966E-2,9.371173941E0
1.417249292E0,2.559401512E0,9.143755913E0,-2.418143749E-1,9.498277869E0
1.419249325E0,4.141969085E-1,9.313743591E0,9.241618514E-1,9.368642052E0
1.421249325E0,-8.403648138E-1,9.670479774E0,8.164227605E-1,9.741197987E0
1.423249291E0,-8.140285611E-1,9.816526413E0,5.865794420E-1,9.867669875E0
1.425249257E0,1.987187415E-1,1.013016701E1,3.591302410E-2,1.013217955E1
1.427248357E0,1.987187415E-1,1.018523312E1,3.591302410E-2,1.018723478E1
1.429247457E0,1.987187415E-1,1.018523312E1,3.591302410E-2,1.018723478E1
1.431246590E0,1.987187415E-1,1.018523312E1,3.591302410E-2,1.018723478E1
1.433246556E0,4.788403213E-2,1.026424217E1,3.591302410E-2,1.026441669E1
1.435246522E0,2.082955539E-1,1.018523312E1,1.556231081E-1,1.018855138E1
1.437246522E0,3.447650373E-1,1.014932060E1,2.035071403E-1,1.015721353E1
1.439246522E0,6.895300746E-1,1.005355263E1,3.423708379E-1,1.008298517E1
1.441246522E0,8.571242094E-1,1.000566864E1,4.141969085E-1,1.005085200E1
1.443246522E0,1.199495077E0,9.897929192E0,4.812345505E-1,9.981952585E0
1.445246522E0,1.589749932E0,9.761459351E0,4.357447028E-1,9.899659941E0
1.447247388E0,1.857900500E0,9.658509254E0,3.088520169E-1,9.840426051E0
1.449248254E0,1.975216389E0,9.605836868E0,2.442085743E-1,9.809853187E0
1.451248254E0,2.178723574E0,9.550769806E0,1.795651317E-1,9.797769335E0
1.453248254E0,2.284068346E0,9.534010887E0,1.675941199E-1,9.805224097E0
1.455248287E0,2.310404539E0,9.536404610E0,1.532289088E-1,9.813483638E0
1.457247920E0,2.288856745E0,9.569923401E0,2.059013397E-1,9.841986307E0
1.459247953E0,2.269703150E0,9.593865395E0,2.657563984E-1,9.862273169E0
1.461247986E0,2.248155355E0,9.608230591E0,3.040636182E-1,9.872423830E0
1.463248019E0,2.130839586E0,9.639355659E0,3.399766386E-1,9.877916733E0
1.465248052E0,1.671152830E0,9.799766541E0,2.873041928E-1,9.945386857E0
1.467247218E0,1.568202138E0,9.828496933E0,2.777273953E-1,9.956693347E0
1.469246351E0,1.568202138E0,9.828496933E0,2.777273953E-1,9.956693347E0
1.471246317E0,1.474828243E0,9.859622002E0,2.825157940E-1,9.973318381E0
1.473246283E0,1.383848548E0,9.890746117E0,2.777273953E-1,9.990947305E0
1.475246249E0,1.175553083E0,9.967360497E0,2.418143749E-1,1.003935628E1
1.477246215E0,9.768342972E-1,1.001524544E1,2.418143749E-1,1.006567537E1
1.479246181E0,8.619126081E-1,1.002242756E1,2.633621991E-1,1.006286774E1
1.481246147E0,8.355764151E-1,1.002242756E1,2.896983922E-1,1.006137005E1
1.483246147E0,8.044517636E-1,9.984120369E0,3.854664862E-1,1.002389079E1
1.485246147E0,6.775590777E-1,9.993697166E0,3.543418646E-1,1.002290514E1
1.487247047E0,5.458779931E-1,1.001045704E1,3.232172430E-1,1.003053848E1
1.489247947E0,4.381389022E-1,1.002961063E1,2.968810201E-1,1.004356478E1
1.491248813E0,5.626373887E-1,9.988908768E0,2.729389966E-1,1.000846416E1
1.493248846E0,5.650315881E-1,9.976937294E0,2.633621991E-1,9.996394256E0
1.495248879E0,4.141969085E-1,1.002242756E1,1.987187415E-1,1.003295083E1
1.497248912E0,2.633621991E-1,1.005594635E1,1.580173075E-1,1.006063547E1
1.499248945E0,2.466027737E-1,1.005594635E1,1.508347094E-1,1.006010045E1
1.501248978E0,3.016694188E-1,1.002242756E1,1.843535304E-1,1.002866117E1
1.503248978E0,2.944868207E-1,9.979331970E0,3.040636182E-1,9.988305349E0
1.505248978E0,-3.064578176E-1,9.739912033E0,7.517793179E-1,9.773687889E0
1.507248111E0,-3.064578176E-1,9.739912033E0,7.517793179E-1,9.773687889E0
1.509247244E0,-4.740519226E-1,9.703998566E0,7.972691655E-1,9.748228122E0
1.511247244E0,-6.655880809E-1,9.675268173E0,8.379706144E-1,9.734270207E0
1.513247244E0,-9.696516991E-1,9.756670952E0,8.619126081E-1,9.842547730E0
1.515247210E0,-1.592144132E0,9.888352394E0,7.829039693E-1,1.004626172E1
1.517247576E0,-1.699883223E0,9.696816444E0,6.177040339E-1,9.864046350E0
1.519247542E0,-1.714248419E0,9.596260071E0,4.812345505E-1,9.760043119E0
1.521247508E0,-1.312022567E0,9.428665161E0,4.429273009E-1,9.529811883E0
1.523247474E0,-8.930372596E-1,9.256282806E0,6.009446383E-1,9.318659850E0
1.525247440E0,-7.422025204E-1,9.208398819E0,5.913678408E-1,9.257169617E0
1.527248273E0,-3.160346150E-1,9.004891396E0,5.722141862E-1,9.028586600E0
1.529249106E0,1.690306425E0,8.447042465E0,4.237737060E-1,8.624920079E0
1.531249106E0,3.078943491E0,8.188468933E0,4.429273009E-1,8.759400726E0
1.533249139E0,5.660192013E0,7.850886822E0,-1.149216816E-1,9.679225408E0
1.535249172E0,1.601720929E0,8.317755699E0,1.661576033E0,8.631998883E0
1.537249205E0,-6.943184733E-1,8.820538521E0,1.747767210E0,9.018795272E0
1.539249238E0,-2.664746523E0,9.677662849E0,7.517793179E-1,1.006594280E1
1.541249271E0,-2.858676910E0,1.020678139E1,1.747767180E-1,1.060098896E1
1.543249304E0,-2.487575531E0,1.050366211E1,4.070143029E-2,1.079428582E1
1.545249337E0,8.810662031E-1,1.068322754E1,-2.418143749E-1,1.072222470E1
1.547248470E0,1.503558636E0,1.067604446E1,-1.412578970E-1,1.078232664E1
1.549247570E0,1.503558636E0,1.067604446E1,-1.412578970E-1,1.078232664E1
1.551247536E0,1.503558636E0,1.067604446E1,-1.412578970E-1,1.078232664E1
1.553247502E0,1.848323703E0,1.073111153E1,1.915361285E-1,1.089080994E1
1.555248602E0,1.939303398E0,1.081730270E1,1.173158810E-1,1.099039119E1
1.557248568E0,2.042253971E0,1.085082150E1,1.915361360E-2,1.104135387E1
1.559248534E0,2.047042370E0,1.090588760E1,-1.005564705E-1,1.109679587E1
1.561248500E0,2.274491549E0,1.075505352E1,-3.136404157E-1,1.099740234E1
1.563248500E0,2.552218914E0,1.060900688E1,-4.596867263E-1,1.092136257E1
1.565248533E0,3.308786631E0,1.027142429E1,-3.423708379E-1,1.079664039E1
1.567249433E0,3.023876667E0,1.025945377E1,8.619125932E-2,1.069615121E1
1.569250333E0,2.205059767E0,1.041028786E1,4.094084799E-1,1.064913129E1
1.571250366E0,1.383848548E0,1.066167927E1,4.477157295E-1,1.076043173E1
1.573250399E0,1.503558636E0,1.049647999E1,1.819593310E-1,1.060518222E1
1.575250432E0,2.712630510E0,9.174880028E0,-4.740519226E-1,9.579222987E0
1.577250465E0,3.811569214E0,8.650549889E0,-6.703764796E-1,9.476786263E0
1.579250498E0,3.732560396E0,9.296984673E0,2.920926213E-1,1.002253706E1
1.581250498E0,1.731007814E0,1.001285076E1,1.376665950E0,1.025420780E1
1.583250498E0,7.757213712E-1,1.010622501E1,1.259350061E0,1.021388713E1
1.585250498E0,-9.409212470E-1,1.067365074E1,-3.088520169E-1,1.071949358E1
1.587249631E0,-9.409212470E-1,1.067365074E1,-3.088520169E-1,1.071949358E1
1.589248764E0,-9.409212470E-1,1.067365074E1,-3.088520169E-1,1.071949358E1
1.591248764E0,-4.932055473E-1,1.057788277E1,-4.692635238E-1,1.059976716E1
1.593248730E0,5.075707436E-1,1.022832870E1,-5.339069963E-1,1.025482291E1
1.595248696E0,1.216254473E0,1.004158115E1,-4.165911078E-1,1.012354558E1
1.597248662E0,1.424550056E0,9.579500198E0,-2.011129409E-1,9.686930026E0
1.599248628E0,1.771709204E0,9.141361237E0,5.506663769E-2,9.311630958E0
1.601248594E0,1.982398987E0,8.911518097E0,2.298433632E-1,9.132244440E0
1.603248560E0,2.643198729E0,8.456619263E0,6.775590777E-1,8.885943685E0
1.605248526E0,3.066972494E0,8.111854553E0,1.072602391E0,8.738362573E0
1.607249592E0,3.038241863E0,8.001721382E0,1.204283476E0,8.643422782E0
1.609250458E0,2.880224705E0,7.855675220E0,1.074996591E0,8.435813250E0
1.611250491E0,2.602497339E0,7.826944828E0,7.278373241E-1,8.280326377E0
1.613250524E0,2.300827742E0,7.865252018E0,4.237737060E-1,8.205826086E0
1.615249424E0,1.944091797E0,7.946654797E0,2.825157940E-1,8.185879949E0
1.617249057E0,7.517793179E-1,8.358457565E0,1.316810995E-1,8.393230899E0
1.619249090E0,1.173158810E-1,8.734347343E0,2.896983922E-1,8.739937739E0
1.621249123E0,2.418143749E-1,8.813355446E0,3.615244627E-1,8.824081161E0
1.623249156E0,1.000776291E0,8.889969826E0,5.410895944E-1,8.962471458E0
1.625249156E0,2.506729126E0,8.212410927E0,1.850717902E0,8.783651911E0
1.627248256E0,6.153098345E-1,9.131784439E0,2.185906172E0,9.409903242E0
1.629247322E0,6.153098345E-1,9.131784439E0,2.185906172E0,9.409903242E0
1.631247288E0,-7.445967197E-1,9.773430824E0,1.958456993E0,9.995495393E0
1.633247254E0,-1.630451322E0,1.009904194E1,1.414973259E0,1.032720528E1
1.635247220E0,-2.142810583E0,1.043183613E1,5.243301988E-1,1.066254024E1
1.637247186E0,-1.702277422E0,1.046296024E1,3.208230138E-1,1.060538603E1
1.639247152E0,-9.744400978E-1,1.050126839E1,1.077390760E-1,1.054693221E1
1.641247152E0,-5.817909837E-1,1.047972012E1,7.182605099E-3,1.049585947E1
1.643247185E0,3.687070608E-1,1.036479855E1,-1.915361360E-2,1.037137217E1
1.645247218E0,9.840168953E-1,1.014692593E1,9.337386489E-2,1.019495531E1
1.647248118E0,1.297657371E0,1.006791782E1,2.226607651E-1,1.015364278E1
1.649249018E0,1.659181833E0,1.000327396E1,6.033388376E-1,1.015787340E1
1.651249051E0,1.678335428E0,9.921871185E0,7.924807668E-1,1.009397659E1
1.653249084E0,1.549048543E0,9.866804123E0,8.068459630E-1,1.002019837E1
1.655249117E0,1.273715258E0,9.677662849E0,6.153098345E-1,9.780496663E0
1.657249150E0,1.204283476E0,9.488520622E0,-6.105214357E-1,9.584104482E0
1.659249150E0,1.470039845E0,9.368810654E0,-9.241618514E-1,9.528363203E0
1.661249150E0,2.853888512E0,8.964190483E0,-1.051054597E0,9.466050202E0
1.663249150E0,2.516305923E0,8.901941299E0,6.703764945E-2,9.250991755E0
1.665249150E0,3.971980572E0,8.581118584E0,-1.364694983E-1,9.456788553E0
1.667248050E0,3.971980572E0,8.581118584E0,-1.364694983E-1,9.456788553E0
1.669247150E0,3.971980572E0,8.581118584E0,-1.364694983E-1,9.456788553E0
1.671247116E0,4.462791920E0,8.581118584E0,3.591302410E-2,9.672300534E0
1.673247082E0,4.718971729E0,8.516474724E0,1.484405100E-1,9.737611128E0
1.675247048E0,4.240131378E0,8.645761490E0,4.692635238E-1,9.640960227E0
1.677247414E0,3.258508444E0,9.071929932E0,6.177040339E-1,9.659158775E0
1.679247380E0,2.949656487E0,9.318531990E0,5.746083856E-1,9.791102422E0
1.681247346E0,3.069366693E0,9.732728958E0,3.208230138E-1,1.021028659E1
1.683247312E0,3.462015629E0,1.006791782E1,1.436520964E-1,1.064749536E1
1.685247278E0,3.605667830E0,1.023790550E1,3.830722719E-2,1.085435475E1
1.687248144E0,3.804386616E0,1.054196930E1,-1.891419291E-1,1.120902533E1
1.689249077E0,3.931279182E0,1.079575443E1,-2.370259613E-1,1.149171228E1
1.691249110E0,3.964797974E0,1.088434029E1,-1.987187415E-1,1.158567976E1
1.693249143E0,3.986345768E0,1.100405025E1,-1.723825186E-1,1.170511813E1
1.695249176E0,3.916913986E0,1.106390572E1,-8.619125932E-2,1.173710585E1
1.697249209E0,3.823540211E0,1.105432892E1,-1.197100803E-2,1.169691373E1
1.699249242E0,3.562572241E0,1.097531986E1,1.101332754E-1,1.153957089E1
1.701249275E0,3.220201254E0,1.081490803E1,2.250549644E-1,1.128638921E1
1.703249275E0,2.877830505E0,1.070716953E1,2.753331959E-1,1.109059043E1
1.705249241E0,2.073378563E0,9.909899712E0,2.873041928E-1,1.012855146E1
1.707248341E0,2.073378563E0,9.909899712E0,2.873041928E-1,1.012855146E1
1.709247441E0,2.073378563E0,9.909899712E0,2.873041928E-1,1.012855146E1
1.711247407E0,1.927332401E0,9.799766541E0,3.399766386E-1,9.993278669E0
1.713247373E0,1.687912226E0,9.555558205E0,5.003881454E-1,9.716384543E0
1.715247339E0,1.838746905E0,9.246706009E0,5.410895944E-1,9.443269569E0
1.717247305E0,1.589749932E0,9.208398819E0,6.464344859E-1,9.366952076E0
1.719247305E0,9.959878922E-1,9.177274704E0,8.643068075E-1,9.271536503E0
1.721247338E0,9.385270476E-1,9.071929932E0,7.637503147E-1,9.152270770E0
1.723247371E0,9.792284966E-1,9.026439667E0,6.871358752E-1,9.105364200E0
1.725247404E0,9.672574997E-1,8.990526199E0,6.919242740E-1,9.068842683E0
1.727248304E0,9.313444495E-1,9.009679794E0,6.679822803E-1,9.082286761E0
1.729249237E0,8.643068075E-1,9.045593262E0,6.512228847E-1,9.110097418E0
1.731249270E0,7.852981687E-1,9.134179115E0,6.272808313E-1,9.189309145E0
1.733249303E0,9.050082564E-1,9.208398819E0,5.817909837E-1,9.271037132E0
1.735249336E0,1.170764685E0,9.237129211E0,5.051765442E-1,9.324722481E0
1.737249336E0,1.362300754E0,9.244312286E0,4.668693244E-1,9.355807820E0
1.739249336E0,1.680729628E0,9.270648003E0,4.668693244E-1,9.433330983E0
1.741249336E0,2.130839586E0,9.256282806E0,5.243301988E-1,9.512842419E0
1.743249336E0,2.619256735E0,9.201216698E0,4.979939461E-1,9.579712550E0
1.745249336E0,-9.576806426E-2,9.490914345E0,1.137245774E0,9.559286300E0
1.747248469E0,-9.576806426E-2,9.490914345E0,1.137245774E0,9.559286300E0
1.749247569E0,-9.576806426E-2,9.490914345E0,1.137245774E0,9.559286300E0
1.751247535E0,-3.711012602E-1,9.627384186E0,6.464344859E-1,9.656195936E0
1.753247401E0,3.806780577E-1,9.723152161E0,1.197100878E-1,9.731337741E0
1.755247367E0,9.983820915E-1,9.759065628E0,1.077390760E-1,9.810593073E0
1.757247333E0,2.142810583E0,9.814131737E0,1.340752989E-1,1.004623288E1
1.759247299E0,2.873042107E0,9.823708534E0,1.604115069E-1,1.023647167E1
1.761247265E0,3.052607059E0,9.826103210E0,2.561795712E-1,1.029253818E1
1.763247231E0,3.148375273E0,9.821314812E0,4.453215301E-1,1.032321669E1
1.765247231E0,3.052607059E0,9.816526413E0,4.836287498E-1,1.029157410E1
1.767248131E0,2.995146275E0,9.816526413E0,4.525041282E-1,1.027325907E1
1.769249031E0,2.837129116E0,9.814131737E0,4.094084799E-1,1.022419183E1
1.771249064E0,2.619256735E0,9.814131737E0,4.501099288E-1,1.016760968E1
1.773249097E0,2.410961151E0,9.790189743E0,5.099649429E-1,1.009557394E1
1.775249130E0,2.324769735E0,9.778219223E0,5.243301988E-1,1.006444473E1
1.777249163E0,2.145204782E0,9.692028046E0,5.123591423E-1,9.939810013E0
1.779249196E0,2.032677174E0,9.603442192E0,4.884171486E-1,9.828348271E0
1.781249196E0,1.984793186E0,9.560346603E0,4.764461517E-1,9.775818743E0
1.783249162E0,1.865083098E0,9.510068893E0,4.596867263E-1,9.702126427E0
1.785249128E0,1.343147159E0,9.627384186E0,4.357447028E-1,9.730387659E0
1.787248228E0,1.343147159E0,9.627384186E0,4.357447028E-1,9.730387659E0
1.789247328E0,1.343147159E0,9.627384186E0,4.357447028E-1,9.730387659E0
1.791247294E0,1.271321058E0,9.680056572E0,4.118026793E-1,9.771864403E0
1.793247260E0,1.192312479E0,9.735123634E0,3.878606856E-1,9.815532443E0
1.795247226E0,1.103726983E0,9.873987198E0,3.112462163E-1,9.940357672E0
1.797247226E0,1.103726983E0,9.993697166E0,2.466027737E-1,1.005748523E1
1.799247259E0,1.127668977E0,1.004636955E1,2.082955539E-1,1.011160549E1
1.801247292E0,1.211466074E0,1.013256073E1,1.795651317E-1,1.020630592E1
1.803247325E0,1.352723956E0,1.017086792E1,1.699883193E-1,1.026183767E1
1.805247358E0,1.513135433E0,1.016607952E1,1.891419291E-1,1.027981159E1
1.807248258E0,1.596932530E0,1.016607952E1,2.202665508E-1,1.029309884E1
1.809249158E0,1.774103403E0,1.010143661E1,2.873041928E-1,1.026006863E1
1.811249191E0,2.068590164E0,9.921871185E0,3.016694188E-1,1.013970402E1
1.813249324E0,2.135627985E0,9.866804123E0,3.567360640E-1,1.010158359E1
1.815249324E0,2.138022184E0,9.778219223E0,5.195417404E-1,1.002270590E1
1.817249324E0,2.279279947E0,9.603442192E0,4.955997467E-1,9.882653395E0
1.819249324E0,2.348711967E0,9.536404610E0,4.716577232E-1,9.832696568E0
1.821249324E0,2.461239338E0,9.440636635E0,4.812345505E-1,9.768055377E0
1.823249324E0,2.547430515E0,9.354445457E0,5.027823448E-1,9.708132783E0
1.825249324E0,2.573766708E0,9.246706009E0,5.315127969E-1,9.612926346E0
1.827248424E0,2.573766708E0,9.246706009E0,5.315127969E-1,9.612926346E0
1.829247524E0,2.573766708E0,9.246706009E0,5.315127969E-1,9.612926346E0
1.831247490E0,2.566584110E0,9.265859604E0,5.243301988E-1,9.629040988E0
1.833247456E0,2.554613113E0,9.313743591E0,5.195417404E-1,9.671700547E0
1.835247422E0,2.580949545E0,9.371204376E0,5.099649429E-1,9.733490446E0
1.837247388E0,2.674323320E0,9.452607155E0,4.884171486E-1,9.835768326E0
1.839247354E0,2.698265314E0,9.507674217E0,4.668693244E-1,9.894163517E0
1.841247320E0,2.712630510E0,9.646537781E0,4.644751251E-1,1.003144020E1
1.843247320E0,2.707842112E0,9.773430824E0,4.620809257E-1,1.015213661E1
1.845247353E0,2.683900118E0,9.871592522E0,4.955997467E-1,1.024193721E1
1.847248253E0,2.693476915E0,9.902717590E0,6.057330370E-1,1.028034757E1
1.849249153E0,2.482787132E0,9.943418503E0,5.602431893E-1,1.026399902E1
1.851249186E0,2.303221941E0,9.924264908E0,5.698199868E-1,1.020394826E1
1.853249219E0,2.020706177E0,9.890746117E0,5.458779931E-1,1.010980193E1
1.855249252E0,1.936909199E0,9.862015724E0,5.123591423E-1,1.006347272E1
1.857249285E0,1.934514999E0,9.821314812E0,4.884171486E-1,1.002193216E1
1.859249285E0,1.980004787E0,9.780612946E0,4.644751251E-1,9.989822105E0
1.861249251E0,2.051830769E0,9.754277229E0,4.596867263E-1,9.978338822E0
1.863249217E0,2.097320795E0,9.737517357E0,4.572925270E-1,9.971314620E0
1.865249183E0,1.702277422E0,9.675268173E0,5.961562395E-1,9.841949243E0
1.867248283E0,1.702277422E0,9.675268173E0,5.961562395E-1,9.841949243E0
1.869247383E0,1.702277422E0,9.675268173E0,5.961562395E-1,9.841949243E0
1.871247349E0,1.544260144E0,9.687239647E0,6.033388376E-1,9.828090818E0
1.873247315E0,1.266532660E0,9.732728958E0,6.033388376E-1,9.833317635E0
1.875247315E0,1.000776291E0,9.792584419E0,5.482721925E-1,9.858847052E0
1.877247348E0,8.643068075E-1,9.828496933E0,5.099649429E-1,9.879597282E0
1.879247114E0,6.033388376E-1,9.873987198E0,3.878606856E-1,9.900003881E0
1.881247147E0,3.327940404E-1,9.840468407E0,2.035071403E-1,9.848197068E0
1.883247180E0,1.963245422E-1,9.799766541E0,1.316810995E-1,9.802617379E0
1.885247680E0,-7.900865376E-2,9.720758438E0,1.101332754E-1,9.721703365E0
1.887248580E0,-3.232172430E-1,9.589076996E0,1.843535304E-1,9.596293724E0
1.889249480E0,-3.519476354E-1,9.524434090E0,2.370259613E-1,9.533881328E0
1.891249513E0,-3.639186621E-1,9.409511566E0,2.920926213E-1,9.421075459E0
1.893249513E0,-4.501099288E-1,9.249100685E0,2.274491638E-1,9.262839497E0
1.895249513E0,-6.320692301E-1,9.158121109E0,1.699883193E-1,9.181480806E0
1.897249513E0,-7.326257229E-1,9.131784439E0,1.723825186E-1,9.162747581E0
1.899249513E0,-1.036689281E0,9.129390717E0,2.298433632E-1,9.190937248E0
1.901249513E0,-1.201889277E0,9.146149635E0,2.633621991E-1,9.228540005E0
1.903249513E0,-1.182735682E0,9.150938034E0,2.442085743E-1,9.230285392E0
1.905249479E0,-4.860229492E-1,9.263465881E0,3.591302410E-2,9.276276634E0
1.907248579E0,-4.860229492E-1,9.263465881E0,3.591302410E-2,9.276276634E0
1.909247679E0,-4.860229492E-1,9.263465881E0,3.591302410E-2,9.276276634E0
1.911247645E0,-3.543418646E-1,9.306561470E0,4.788403213E-2,9.313427803E0
1.913247611E0,-2.154781483E-2,9.407117844E0,9.097966552E-2,9.407582459E0
1.915247577E0,1.364694983E-1,9.440636635E0,1.077390760E-1,9.442237643E0
1.917247543E0,3.902548850E-1,9.478943825E0,1.556231081E-1,9.488250284E0
1.919247509E0,6.320692301E-1,9.502885818E0,2.202665508E-1,9.526429958E0
1.921247509E0,7.972691655E-1,9.490914345E0,2.657563984E-1,9.528049102E0
1.923247542E0,1.170764685E0,9.364022255E0,3.663128614E-1,9.444034511E0
1.925247575E0,1.601720929E0,9.217975616E0,4.046200812E-1,9.364843929E0
1.927248475E0,1.783680320E0,9.150938034E0,4.094084799E-1,9.332137895E0
1.929249375E0,2.003946781E0,9.031228065E0,3.854664862E-1,9.258912867E0
1.931249408E0,2.152387381E0,8.930671692E0,3.591302633E-1,9.193402137E0
1.933249441E0,2.229001760E0,8.899546623E0,2.873041928E-1,9.178939081E0
1.935249474E0,2.257732153E0,8.899546623E0,2.729389966E-1,9.185520141E0
1.937249474E0,2.310404539E0,8.949825287E0,2.633621991E-1,9.246983370E0
1.939249707E0,2.351106167E0,9.024045944E0,2.370259613E-1,9.328305672E0
1.941249673E0,2.360682964E0,9.083900452E0,2.346317619E-1,9.388563444E0
1.943249639E0,2.439691544E0,9.215581894E0,2.849099934E-1,9.537306652E0
1.945249139E0,2.784456491E0,9.299378395E0,1.891419291E-1,9.709140598E0
1.947248239E0,2.813186884E0,9.332897186E0,1.891419291E-1,9.749500757E0
1.949247339E0,2.813186884E0,9.332897186E0,1.891419291E-1,9.749500757E0
1.951247772E0,2.827552319E0,9.375992775E0,1.771709323E-1,9.794676216E0
1.953247772E0,2.786850691E0,9.416694641E0,1.771709323E-1,9.822019358E0
1.955247805E0,2.638410330E0,9.481337547E0,2.322375625E-1,9.844333651E0
1.957247838E0,2.422932148E0,9.474155426E0,3.327940404E-1,9.784731632E0
1.959247871E0,2.276885748E0,9.474155426E0,4.070142806E-1,9.752409465E0
1.961247904E0,1.867477298E0,9.488520622E0,6.129156351E-1,9.689951529E0
1.963247937E0,1.362300754E0,9.512462616E0,6.464344859E-1,9.631234911E0
1.965247970E0,1.642422318E0,9.304166794E0,2.513911724E-1,9.451363305E0
1.967248870E0,1.934514999E0,9.227552414E0,6.943184882E-2,9.428408806E0
1.969249770E0,2.221819162E0,9.189245224E0,-6.224924326E-2,9.454236254E0
1.971249770E0,2.233790159E0,9.356839180E0,2.418143749E-1,9.622823500E0
1.973249770E0,2.202665567E0,9.459790230E0,4.692635238E-1,9.724174775E0
1.975249770E0,2.063801765E0,9.632172585E0,8.499416113E-1,9.887387277E0
1.977249770E0,1.833958507E0,9.763854027E0,9.648633003E-1,9.981343118E0
1.979249770E0,1.769315004E0,9.773430824E0,8.978256583E-1,9.972788806E0
1.981249770E0,1.680729628E0,9.840468407E0,6.775590777E-1,1.000593608E1
1.983249736E0,1.582567334E0,1.000327396E1,5.722141862E-1,1.014383746E1
1.985249702E0,1.551442742E0,1.039113426E1,5.602431893E-1,1.052124129E1
1.987248802E0,1.551442742E0,1.039113426E1,5.602431893E-1,1.052124129E1
1.989247902E0,1.551442742E0,1.039113426E1,5.602431893E-1,1.052124129E1
1.991247935E0,1.534683347E0,1.045098972E1,5.937620401E-1,1.057974445E1
1.993247901E0,1.503558636E0,1.049408531E1,5.482721925E-1,1.061541886E1
1.995247867E0,1.474828243E0,1.049169159E1,4.309563041E-1,1.060360477E1
1.997247833E0,1.355118155E0,1.049887371E1,4.309563041E-1,1.059473538E1
1.999247833E0,1.328781962E0,1.047253704E1,3.950432837E-1,1.056388909E1
2.001247833E0,1.216254473E0,1.037676907E1,3.112462163E-1,1.045243921E1
2.003247866E0,1.019929886E0,1.033367348E1,3.878606856E-1,1.039112604E1
2.005247899E0,9.504981041E-1,1.030733776E1,4.309563041E-1,1.036003773E1
2.007248799E0,7.948749661E-1,1.023790550E1,4.525041282E-1,1.027868159E1
2.009249699E0,6.344634295E-1,1.013734913E1,4.764461517E-1,1.016835248E1
2.011249265E0,5.482721925E-1,1.010622501E1,5.123591423E-1,1.013404649E1
2.013249298E0,3.758896589E-1,1.003200436E1,5.746083856E-1,1.005547509E1
2.015249298E0,3.351882398E-1,9.929053307E0,4.429273009E-1,9.944578187E0
2.017249264E0,3.016694188E-1,9.897929192E0,4.189853072E-1,9.911385141E0
2.019249230E0,2.777273953E-1,9.897929192E0,3.543418646E-1,9.908162945E0
2.021249196E0,2.274491638E-1,9.917082787E0,3.088520169E-1,9.924497654E0
2.023249162E0,1.819593310E-1,9.931447983E0,3.088520169E-1,9.937915164E0
2.025249128E0,4.165911078E-1,9.850045204E0,4.477157295E-1,9.869011503E0
2.027248228E0,5.099649429E-1,9.802161217E0,4.477157295E-1,9.825623549E0
2.029247328E0,5.099649429E-1,9.802161217E0,4.477157295E-1,9.825623549E0
2.031247794E0,5.099649429E-1,9.802161217E0,4.477157295E-1,9.825623549E0
2.033247794E0,6.991068721E-1,9.677662849E0,4.357447028E-1,9.712660917E0
2.035247794E0,8.619126081E-1,9.545981407E0,3.639186621E-1,9.591719927E0
2.037247794E0,9.457096457E-1,9.478943825E0,3.256114423E-1,9.531566796E0
2.039247794E0,1.022324085E0,9.344868660E0,2.633621991E-1,9.404311589E0
2.041247794E0,8.834604025E-1,9.227552414E0,2.801215947E-1,9.273979402E0
2.043247794E0,9.121908545E-1,9.179668427E0,2.705447972E-1,9.228846031E0
2.045247794E0,1.096544385E0,9.134179115E0,2.489969730E-1,9.203131923E0
2.047248660E0,1.331176162E0,9.141361237E0,2.920926213E-1,9.242393269E0
2.049249560E0,1.450886250E0,9.158121109E0,3.327940404E-1,9.278308306E0
2.051249526E0,1.678335428E0,9.249100685E0,3.615244627E-1,9.407091646E0
2.053249559E0,1.857900500E0,9.330503464E0,3.854664862E-1,9.521484841E0
2.055249592E0,1.951274395E0,9.383175850E0,4.213795066E-1,9.593175777E0
2.057248758E0,1.980004787E0,9.498097420E0,3.998316824E-1,9.710516924E0
2.059248791E0,2.042253971E0,9.574711800E0,3.112462163E-1,9.795038618E0
2.061248824E0,2.080561161E0,9.593865395E0,2.801215947E-1,9.820868397E0
2.063248824E0,2.056619167E0,9.668086052E0,2.226607651E-1,9.886918030E0
2.065248790E0,1.687912226E0,9.792584419E0,2.920926213E-1,9.941281376E0
2.067247890E0,1.687912226E0,9.792584419E0,2.920926213E-1,9.941281376E0
2.069246990E0,1.687912226E0,9.792584419E0,2.920926213E-1,9.941281376E0
2.071246956E0,1.697489023E0,9.761459351E0,3.303998411E-1,9.913461640E0
2.073246922E0,1.752555609E0,9.694421768E0,4.261679053E-1,9.860775003E0
2.075246888E0,1.781286120E0,9.651326180E0,4.860229492E-1,9.826357187E0
2.077246888E0,1.877054095E0,9.526827812E0,5.722141862E-1,9.726829356E0
2.079246888E0,1.786074519E0,9.522039413E0,5.841852427E-1,9.705697769E0
2.081246921E0,1.702277422E0,9.519645691E0,5.913678408E-1,9.688710875E0
2.083246954E0,1.496376038E0,9.514857292E0,5.889736414E-1,9.649794842E0
2.085246987E0,1.228225470E0,9.505280495E0,5.291185975E-1,9.598898977E0
2.087247887E0,1.125274777E0,9.488520622E0,4.716577232E-1,9.566646640E0
2.089248620E0,9.935936928E-1,9.483732224E0,4.141969085E-1,9.544630134E0
2.091248053E0,9.696516991E-1,9.433453560E0,4.333505034E-1,9.493053415E0
2.093248086E0,9.074024558E-1,9.433453560E0,4.932055473E-1,9.489819650E0
2.095248086E0,7.517793179E-1,9.440636635E0,5.626373887E-1,9.487220512E0
2.097248086E0,6.919242740E-1,9.392752647E0,5.171475410E-1,9.432391164E0
2.099248086E0,6.440402865E-1,9.392752647E0,4.740519226E-1,9.426734080E0
2.101248086E0,6.153098345E-1,9.395146370E0,4.453215301E-1,9.425799317E0
2.103248086E0,5.913678408E-1,9.397541046E0,3.591302633E-1,9.422975548E0
2.105248086E0,7.661445141E-1,9.308955193E0,2.226607651E-1,9.343083111E0
2.107247219E0,8.236053586E-1,9.253889084E0,2.011129409E-1,9.292644154E0
2.109246319E0,8.236053586E-1,9.253889084E0,2.011129409E-1,9.292644154E0
2.111246519E0,8.834604025E-1,9.196428299E0,1.891419291E-1,9.240701835E0
2.113246485E0,9.481038451E-1,9.107842445E0,1.723825186E-1,9.158679525E0
2.115246451E0,1.051054597E0,8.877999306E0,1.532289088E-1,8.941312350E0
2.117247284E0,1.127668977E0,8.870816231E0,2.250549644E-1,8.945035923E0
2.119247250E0,1.132457376E0,8.892364502E0,2.322375625E-1,8.967192450E0
2.121247216E0,1.036689281E0,8.889969826E0,3.303998411E-1,8.956307957E0
2.123247182E0,1.034295082E0,8.854057312E0,4.548983276E-1,8.925862966E0
2.125247182E0,1.106121182E0,8.753500938E0,4.860229492E-1,8.836486918E0
2.127248082E0,1.254561663E0,8.679280281E0,4.620809257E-1,8.781648475E0
2.129248982E0,1.709460020E0,8.365639687E0,4.716577232E-1,8.551528631E0
2.131249015E0,2.212242365E0,8.078335762E0,4.932055473E-1,8.390278701E0
2.133249048E0,2.224213362E0,8.092700958E0,4.094084799E-1,8.402770328E0
2.135249081E0,2.068590164E0,8.336909294E0,2.202665508E-1,8.592533922E0
2.137249114E0,2.691082716E0,8.195652008E0,-1.173158810E-1,8.626957809E0
2.139249014E0,2.743755102E0,8.310573578E0,-2.202665508E-1,8.754561246E0
2.141249014E0,1.747767210E0,9.047987938E0,1.292868853E-1,9.216153810E0
2.143248980E0,1.194706678E0,9.591471672E0,1.316810995E-1,9.666488131E0
2.145248946E0,7.618649006E0,7.565976620E0,1.000776291E0,1.078375482E1
2.147248046E0,7.618649006E0,7.565976620E0,1.000776291E0,1.078375482E1
2.149247312E0,7.618649006E0,7.565976620E0,1.000776291E0,1.078375482E1
2.151247378E0,7.618649006E0,7.565976620E0,1.000776291E0,1.078375482E1
2.153247344E0,6.100725174E0,9.359233856E0,2.145204782E0,1.137611575E1
2.155247344E0,1.817199111E0,1.041028786E1,1.422155857E0,1.066296550E1
2.157247344E0,2.873041928E-1,1.054196930E1,7.948749661E-1,1.057579721E1
2.159247377E0,-3.399766386E-1,1.089391708E1,-2.537853718E-1,1.090217504E1
2.161247410E0,-5.985504389E-2,1.131050777E1,-4.884171486E-1,1.132120665E1
2.163247443E0,-1.915361285E-1,1.149725628E1,-4.764461517E-1,1.150871796E1
2.165247076E0,-1.149216816E-1,1.172949314E1,-4.381389022E-1,1.173823590E1
2.167247976E0,4.237737060E-1,1.177498341E1,3.351882473E-2,1.178265428E1
2.169248876E0,1.699883223E0,1.100165653E1,3.782838583E-1,1.113863313E1
2.171248676E0,2.715024710E0,1.024987698E1,3.974374831E-1,1.061081023E1
2.173248676E0,6.064812183E0,7.144597054E0,-4.357447028E-1,9.381742233E0
2.175248676E0,7.067982674E0,4.163516521E0,5.267243981E-1,8.220017487E0
2.177248676E0,6.462249756E0,4.232948780E0,1.759738207E0,7.923080578E0
2.179248676E0,5.696105003E0,6.364087582E0,1.711854219E0,8.710778830E0
2.181248676E0,3.433285236E0,8.504503250E0,1.137245774E0,9.241609762E0
2.183248609E0,1.908178806E0,9.050381660E0,7.637503147E-1,9.280833427E0
2.185248609E0,-1.628057122E0,9.572318077E0,2.011129409E-1,9.711863352E0
2.187247709E0,-1.628057122E0,9.572318077E0,2.011129409E-1,9.711863352E0
2.189246775E0,-1.628057122E0,9.572318077E0,2.011129409E-1,9.711863352E0
2.191246741E0,-1.568202138E0,9.811738014E0,3.998316824E-1,9.944311247E0
2.193246707E0,-1.467645645E0,1.048929691E1,7.948749661E-1,1.062125980E1
2.195246673E0,-9.337386489E-1,1.085800362E1,9.241618514E-1,1.093719276E1
2.197246639E0,-5.099649429E-1,1.088434029E1,9.265560508E-1,1.093560395E1
2.199246739E0,9.840168953E-1,1.050605679E1,7.852981687E-1,1.058121976E1
2.201246705E0,2.913743496E0,9.519645691E0,7.445967197E-1,9.983385173E0
2.203246705E0,3.004723072E0,9.308955193E0,6.727706790E-1,9.804979750E0
2.205246738E0,2.568978310E0,1.017805099E1,-1.005564705E-1,1.049773705E1
2.207247638E0,2.193088770E0,1.069040966E1,4.094084799E-1,1.092071941E1
2.209248538E0,1.929726601E0,1.121952820E1,7.876923680E-1,1.141149057E1
2.211248604E0,3.739742994E0,1.185159779E1,-4.644751251E-1,1.243630913E1
2.213248637E0,5.743988991E0,1.228494835E1,-1.221042871E-1,1.356201589E1
2.215248670E0,7.876923680E-1,1.197130775E1,6.368576288E-1,1.201408574E1
2.217248703E0,1.388636976E-1,1.154514027E1,1.412579060E0,1.163206458E1
2.219248703E0,-2.334346771E0,1.025945377E1,1.620874524E0,1.064578794E1
2.221248669E0,-3.632004023E0,9.873987198E0,1.486799240E0,1.062533051E1
2.223248635E0,-4.922778130E0,1.063773727E1,1.527500629E0,1.182067921E1
2.225249001E0,4.431667328E0,1.162654305E1,-6.488286853E-1,1.245942042E1
2.227248101E0,4.431667328E0,1.162654305E1,-6.488286853E-1,1.245942042E1
2.229247201E0,4.431667328E0,1.162654305E1,-6.488286853E-1,1.245942042E1
2.231247167E0,3.928884983E0,1.118361568E1,1.604115069E-1,1.185475132E1
2.233247000E0,-1.048660398E0,1.074308205E1,3.711012602E-1,1.080051928E1
2.235247000E0,-3.198653460E0,1.056112289E1,-1.101332754E-1,1.103543520E1
2.237247033E0,-4.833893299E0,1.037198067E1,-7.398083210E-1,1.146698843E1
2.239247066E0,-9.768342972E-1,9.943418503E0,-1.103726983E0,1.005206397E1
2.241247099E0,1.012747288E0,9.823708534E0,-8.451532125E-1,9.911871185E0
2.243247199E0,2.681505978E-1,9.701604843E0,3.351882398E-1,9.711096356E0
2.245247232E0,-4.788403213E-2,9.593865395E0,8.619125932E-2,9.594372049E0
2.247248132E0,1.051054597E0,9.629778862E0,-1.364694983E-1,9.687929635E0
2.249249065E0,-2.035071403E-1,1.006073475E1,5.195417404E-1,1.007619583E1
2.251249098E0,-2.138022184E0,1.016847420E1,5.291185975E-1,1.040427666E1
2.253249098E0,-2.387019157E0,1.026184750E1,2.011129409E-1,1.053773320E1
2.255249098E0,-1.065419793E0,1.030733776E1,-2.968810201E-1,1.036650710E1
2.257249098E0,1.628057212E-1,1.047014332E1,7.182605099E-3,1.047141148E1
2.259249098E0,-8.355764151E-1,1.047014332E1,3.016694188E-1,1.050776349E1
2.261249098E0,-1.209071875E0,1.041507626E1,2.059013397E-1,1.048704265E1
2.263249098E0,-1.630451322E0,1.034564495E1,-7.661445439E-2,1.047361498E1
2.265249064E0,-5.195417404E-1,1.000566864E1,9.097966552E-2,1.001956116E1
2.267248164E0,-5.195417404E-1,1.000566864E1,9.097966552E-2,1.001956116E1
2.269247264E0,-5.195417404E-1,1.000566864E1,9.097966552E-2,1.001956116E1
2.271247230E0,-7.900865376E-2,9.960178375E0,1.699883193E-1,9.961942163E0
2.273247196E0,5.578489900E-1,9.883563995E0,1.244984865E-1,9.900077405E0
2.275247162E0,5.739200592E0,9.165303230E0,-4.501099288E-1,1.082329921E1
2.277247128E0,6.464643955E0,9.909899712E0,4.812345505E-1,1.184184616E1
2.279247094E0,5.049670696E0,9.972148895E0,1.070208192E0,1.122890348E1
2.281247094E0,2.250549644E-1,1.010383034E1,1.187524080E0,1.017586609E1
2.283247127E0,-3.500322819E0,9.715970039E0,6.967126727E-1,1.035073631E1
2.285247160E0,-4.402936935E0,9.378387451E0,4.572925270E-1,1.037058925E1
2.287248060E0,-4.441244125E0,9.287407875E0,5.770025849E-1,1.031084509E1
2.289248960E0,-4.158728123E0,9.256282806E0,6.512228847E-1,1.016847492E1
2.291248993E0,-3.002328873E0,9.287407875E0,5.195417404E-1,9.774448696E0
2.293249193E0,-2.185906172E0,9.354445457E0,2.705447972E-1,9.610256505E0
2.295249226E0,-7.182605267E-1,9.443030357E0,2.082955539E-1,9.472597719E0
2.297249226E0,3.160346150E-1,9.557952881E0,3.399766386E-1,9.569217589E0
2.299249192E0,6.200982332E-1,9.670479774E0,4.860229492E-1,9.702521280E0
2.301249158E0,8.092401624E-1,9.866804123E0,6.081272364E-1,9.918594254E0
2.303249124E0,6.224924326E-1,1.000088024E1,7.685387731E-1,1.004966439E1
2.305249090E0,5.099649429E-1,9.864410400E0,5.626373887E-1,9.893594778E0
2.307248190E0,5.099649429E-1,9.864410400E0,5.626373887E-1,9.893594778E0
2.309247290E0,5.099649429E-1,9.864410400E0,5.626373887E-1,9.893594778E0
2.311247256E0,6.392518282E-1,9.840468407E0,5.554547906E-1,9.876841164E0
2.313247256E0,8.259995580E-1,9.979331970E0,4.932055473E-1,1.002559692E1
2.315247289E0,7.781155705E-1,1.022593498E1,2.394201607E-2,1.025552453E1
2.317247322E0,8.188169599E-1,1.030733776E1,-5.985504389E-2,1.033998334E1
2.319247555E0,1.173158884E0,1.038874054E1,-1.053448766E-1,1.045530149E1
2.321247588E0,1.771709204E0,1.034325027E1,-9.097966552E-2,1.049428688E1
2.323247621E0,2.420537949E0,1.033606815E1,-5.506663769E-2,1.061585329E1
2.325247654E0,2.901772499E0,1.035522175E1,2.489969730E-1,1.075699310E1
2.327248554E0,3.038241863E0,1.031451988E1,3.447650373E-1,1.075821068E1
2.329249454E0,3.272873640E0,1.019720459E1,4.501099288E-1,1.071901499E1
2.331249454E0,3.466804028E0,1.013016701E1,4.046200812E-1,1.071460364E1
2.333249454E0,8.176498413E0,9.100660324E0,-7.038952708E-1,1.225449359E1
2.335249454E0,1.429368305E1,1.042944145E1,-3.423708379E-1,1.769745298E1
2.337249454E0,1.028578949E1,1.073350525E1,9.744400978E-1,1.489815874E1
2.339249454E0,1.448492050E0,1.020438671E1,1.987187386E0,1.049650185E1
2.341249454E0,-2.099714994E0,9.452607155E0,5.793967843E-1,9.700324001E0
2.343249420E0,-2.559401512E0,9.148544312E0,1.580173075E-1,9.501124596E0
2.345249386E0,5.482721925E-1,9.210793495E0,4.644751251E-1,9.238780025E0
2.347248486E0,5.482721925E-1,9.210793495E0,4.644751251E-1,9.238780025E0
2.349247586E0,5.482721925E-1,9.210793495E0,4.644751251E-1,9.238780025E0
2.351247552E0,8.714894056E-1,9.433453560E0,3.447650373E-1,9.479894661E0
2.353247018E0,1.290474772E0,9.893140793E0,3.519476354E-1,9.983157167E0
2.355246984E0,1.426944256E0,1.028100109E1,4.692635238E-1,1.039015696E1
2.357246950E0,1.446097851E0,1.042465305E1,5.051765442E-1,1.053659307E1
2.359246950E0,1.403002143E0,1.061379528E1,4.620809257E-1,1.071608996E1
2.361246983E0,1.295263171E0,1.059943008E1,4.860229492E-1,1.068933315E1
2.363247016E0,1.290474772E0,1.052281570E1,5.434837937E-1,1.061557112E1
2.365247049E0,1.450886250E0,1.033367348E1,6.847416759E-1,1.045747339E1
2.367247949E0,1.836352706E0,1.014932060E1,7.565677166E-1,1.034182260E1
2.369248849E0,2.027888775E0,1.006552315E1,7.517793179E-1,1.029525431E1
2.371248882E0,2.425326347E0,9.976937294E0,7.302315235E-1,1.029343110E1
2.373248915E0,2.614468336E0,9.909899712E0,6.919242740E-1,1.027230822E1
2.375248915E0,2.636016130E0,9.895534515E0,6.775590777E-1,1.026300495E1
2.377248881E0,2.643198729E0,9.885957718E0,6.512228847E-1,1.025391392E1
2.379248647E0,2.612074137E0,9.912294388E0,6.129156351E-1,1.026899104E1
2.381248613E0,2.580949545E0,9.938630104E0,6.129156351E-1,1.028656087E1
2.383248579E0,2.458845139E0,9.991303444E0,5.817909837E-1,1.030585002E1
2.385248545E0,1.831564307E0,1.019002151E1,5.578489900E-1,1.036833457E1
2.387247645E0,1.831564307E0,1.019002151E1,5.578489900E-1,1.036833457E1
2.389246745E0,1.831564307E0,1.019002151E1,5.578489900E-1,1.036833457E1
2.391246745E0,1.721431017E0,1.021875191E1,5.410895944E-1,1.037684891E1
2.393246778E0,1.556231141E0,1.026424217E1,5.339069963E-1,1.039526716E1
2.395246811E0,1.503558636E0,1.027860737E1,5.291185975E-1,1.040146261E1
2.397246844E0,1.403002143E0,1.029776096E1,5.363011956E-1,1.040672450E1
2.399246210E0,1.290474772E0,1.030254936E1,5.530605912E-1,1.039777498E1
2.401246243E0,1.254561663E0,1.027621269E1,5.602431893E-1,1.036765859E1
2.403246276E0,1.194706678E0,1.021156979E1,5.650315881E-1,1.029673454E1
2.405246309E0,1.163581967E0,1.015889740E1,5.602431893E-1,1.024065388E1
2.407247209E0,1.149216771E0,1.013256073E1,5.602431893E-1,1.021290157E1
2.409248075E0,1.098938584E0,1.006312943E1,5.746083856E-1,1.013925119E1
2.411248075E0,1.036689281E0,1.001763916E1,5.698199868E-1,1.008724511E1
2.413248575E0,9.816226959E-1,9.967360497E0,5.339069963E-1,1.002980135E1
2.415248575E0,8.954314590E-1,9.840468407E0,4.094084799E-1,9.889602179E0
2.417248575E0,7.733271718E-1,9.783007622E0,2.561795712E-1,9.816868188E0
2.419248575E0,7.374141216E-1,9.763854027E0,1.891419291E-1,9.793487617E0
2.421248541E0,6.584054828E-1,9.723152161E0,8.140286058E-2,9.745758675E0
2.423248507E0,6.177040339E-1,9.701604843E0,1.915361360E-2,9.721268521E0
2.425248473E0,5.171475410E-1,9.780612946E0,-1.412578970E-1,9.795294021E0
2.427247573E0,5.506663918E-1,9.785401344E0,-1.771709323E-1,9.802484506E0
2.429246673E0,5.506663918E-1,9.785401344E0,-1.771709323E-1,9.802484506E0
2.431246639E0,5.770025849E-1,9.771036148E0,-2.082955539E-1,9.790274073E0
2.433246805E0,5.913678408E-1,9.749488831E0,-2.202665508E-1,9.769890774E0
2.435246771E0,6.320692301E-1,9.684844971E0,-2.298433632E-1,9.708169837E0
2.437246771E0,6.871358752E-1,9.596260071E0,-2.633621991E-1,9.624433630E0
2.439246804E0,7.182605267E-1,9.548376083E0,-2.992752194E-1,9.580028688E0
2.441246837E0,7.230489254E-1,9.464578629E0,-3.232172430E-1,9.497658540E0
2.443246870E0,7.972691655E-1,9.340080261E0,-2.442085743E-1,9.377226415E0
2.445246903E0,8.236053586E-1,9.229947090E0,-1.173158810E-1,9.267362736E0
2.447247803E0,8.236053586E-1,9.215581894E0,-7.900865376E-2,9.252649231E0
2.449248703E0,8.714894056E-1,9.217975616E0,-6.224924326E-2,9.259289563E0
2.451248736E0,9.241618514E-1,9.217975616E0,-3.112462163E-2,9.264238681E0
2.453248736E0,1.163581967E0,9.189245224E0,9.337386489E-2,9.263091787E0
2.455248702E0,1.467645645E0,9.138967514E0,2.489969730E-1,9.259411993E0
2.457248668E0,1.731007814E0,9.122207642E0,3.543418646E-1,9.291750022E0
2.459249301E0,1.862688899E0,9.110237122E0,4.046200812E-1,9.307510288E0
2.461249267E0,2.059013367E0,9.071929932E0,5.147533417E-1,9.316888951E0
2.463249233E0,2.142810583E0,9.076718330E0,6.177040339E-1,9.346657751E0
2.465249199E0,2.197877169E0,9.234735489E0,6.751648784E-1,9.516661768E0
2.467248299E0,2.197877169E0,9.234735489E0,6.751648784E-1,9.516661768E0
2.469247432E0,2.197877169E0,9.234735489E0,6.751648784E-1,9.516661768E0
2.471247432E0,2.161964178E0,9.282619476E0,6.943184733E-1,9.556316842E0
2.473247432E0,2.102109194E0,9.392752647E0,6.919242740E-1,9.649944277E0
2.475247432E0,2.001552582E0,9.524434090E0,6.392518282E-1,9.753445564E0
2.477247432E0,1.927332401E0,9.586683273E0,6.081272364E-1,9.797393791E0
2.479247432E0,1.757344007E0,9.689633369E0,6.129156351E-1,9.866758250E0
2.481247432E0,1.611297727E0,9.763854027E0,5.051765442E-1,9.908800591E0
2.483247432E0,1.568202138E0,9.806949615E0,4.764461517E-1,9.942963323E0
2.485247432E0,1.611297727E0,9.838073730E0,3.950432837E-1,9.976975207E0
2.487247932E0,1.596932530E0,9.876380920E0,3.639186621E-1,1.001127017E1
2.489248832E0,1.549048543E0,9.883563995E0,2.849099934E-1,1.000827469E1
2.491248865E0,1.498770237E0,9.900322914E0,2.561795712E-1,1.001640325E1
2.493248698E0,1.319205165E0,9.972148895E0,2.370259613E-1,1.006182077E1
2.495248731E0,1.343147159E0,9.936236382E0,3.878606856E-1,1.003410552E1
2.497248764E0,1.379060149E0,9.885957718E0,4.094084799E-1,9.990074184E0
2.499248764E0,1.414973259E0,9.816526413E0,2.705447972E-1,9.921669952E0
2.501248764E0,1.345541358E0,9.794978142E0,1.867477298E-1,9.888728587E0
2.503248730E0,1.304839969E0,9.814131737E0,1.699883193E-1,9.901953601E0
2.505248696E0,1.149216771E0,9.780612946E0,8.619125932E-2,9.848274860E0
2.507247796E0,1.149216771E0,9.780612946E0,8.619125932E-2,9.848274860E0
2.509246896E0,1.077390790E0,9.766247749E0,5.985504389E-2,9.825678025E0
2.511246862E0,1.077390790E0,9.766247749E0,5.985504389E-2,9.825678025E0
2.513246828E0,8.643068075E-1,9.771036148E0,8.858546615E-2,9.809588220E0
2.515246828E0,7.493851185E-1,9.744700432E0,2.777273953E-1,9.777417710E0
2.517246861E0,6.584054828E-1,9.694421768E0,3.711012602E-1,9.723838097E0
2.519246894E0,4.932055473E-1,9.574711800E0,3.758896589E-1,9.594772055E0
2.521246927E0,4.477157295E-1,9.488520622E0,2.059013397E-1,9.501308770E0
2.523246960E0,4.740519226E-1,9.273042679E0,1.173158810E-1,9.285892998E0
2.525246993E0,5.674257874E-1,9.062353134E0,-6.224924326E-2,9.080313393E0
2.527247893E0,6.967126727E-1,8.949825287E0,-1.364694983E-1,8.977939916E0
2.529248793E0,6.919242740E-1,8.954613686E0,-1.244984865E-1,8.982169300E0
2.531248826E0,6.296750307E-1,9.081506729E0,-3.112462163E-2,9.103363327E0
2.533248826E0,6.224924326E-1,9.232340813E0,1.436521020E-2,9.253314005E0
2.535248826E0,5.817909837E-1,9.330503464E0,5.027823523E-2,9.348759465E0
2.537248826E0,5.003881454E-1,9.519645691E0,1.268926859E-1,9.533632263E0
2.539248826E0,-3.615244627E-1,9.624990463E0,-6.799532771E-1,9.655748434E0
2.541248826E0,-4.620809257E-1,9.651326180E0,-5.937620401E-1,9.680607892E0
2.543248826E0,6.224924326E-2,9.680056572E0,-5.746084079E-2,9.680427261E0
2.545248826E0,1.077390790E0,9.783007622E0,1.221042871E-1,9.842912094E0
2.547248326E0,1.077390790E0,9.809343338E0,1.149216816E-1,9.869001704E0
2.549247426E0,1.077390790E0,9.809343338E0,1.149216816E-1,9.869001704E0
2.551247392E0,1.017535686E0,9.864410400E0,3.543418646E-1,9.923080650E0
2.553247358E0,1.292868972E0,9.897929192E0,6.512228847E-1,1.000322966E1
2.555247324E0,1.551442742E0,9.845256805E0,1.067813993E0,1.002378586E1
2.557247290E0,2.264914751E0,9.828496933E0,1.249773264E0,1.016322409E1
2.559247256E0,2.633621931E0,9.847650528E0,9.648633003E-1,1.023929424E1
2.561247222E0,2.645592928E0,9.804554939E0,6.703764796E-1,1.017732107E1
2.563247222E0,2.427720547E0,9.610625267E0,1.771709323E-1,9.914097771E0
2.565247255E0,2.341529369E0,9.543587685E0,-6.703764945E-2,9.826867239E0
2.567248155E0,2.327163935E0,9.524434090E0,-8.619125932E-2,9.804996973E0
2.569249055E0,2.319981337E0,9.514857292E0,6.224924326E-2,9.793809150E0
2.571249088E0,2.269703150E0,9.562741280E0,3.088520169E-1,9.833257992E0
2.573249121E0,2.224213362E0,9.596260071E0,3.854664862E-1,9.858190343E0
2.575249154E0,1.980004787E0,9.663297653E0,4.692635238E-1,9.875218921E0
2.577249154E0,1.788468719E0,9.670479774E0,5.339069963E-1,9.848952031E0
2.579249154E0,1.647210717E0,9.701604843E0,5.147533417E-1,9.853903322E0
2.581249120E0,1.436521053E0,9.792584419E0,5.003881454E-1,9.910029800E0
2.583249086E0,1.510741234E0,9.852438927E0,4.979939461E-1,9.980024542E0
2.585249052E0,8.164227605E-1,9.974543571E0,3.567360640E-1,1.001425615E1
2.587248152E0,8.164227605E-1,9.974543571E0,3.567360640E-1,1.001425615E1
2.589247252E0,6.823474765E-1,9.996091843E0,4.237737060E-1,1.002831164E1
2.591247218E0,6.033388376E-1,1.000088024E1,4.596867263E-1,1.002960295E1
2.593247218E0,5.770025849E-1,9.981725693E0,4.692635238E-1,1.000939499E1
2.595247251E0,4.692635238E-1,9.917082787E0,5.410895944E-1,9.942912913E0
2.597247284E0,1.460463107E-1,9.838073730E0,8.020575643E-1,9.871794193E0
2.599247317E0,1.029506698E-1,9.727940559E0,9.313444495E-1,9.772964179E0
2.601247350E0,5.554547906E-1,9.778219223E0,8.331822157E-1,9.829358769E0
2.603247383E0,1.867477298E0,1.021875191E1,8.595184088E-1,1.042348953E1
2.605247416E0,2.547430515E0,1.033367348E1,9.576807022E-1,1.068603585E1
2.607248316E0,5.123591423E-1,9.816526413E0,1.429338455E0,9.933262864E0
2.609249216E0,-1.213860273E0,9.182063103E0,6.536170840E-1,9.284985454E0
2.611249216E0,-1.261744261E0,9.138967514E0,-1.053448766E-1,9.226257277E0
2.613249216E0,-4.477157295E-1,9.512462616E0,-8.690952063E-1,9.562568738E0
2.615249216E0,5.051765442E-1,9.773430824E0,-5.434837937E-1,9.801557430E0
2.617249216E0,8.714894056E-1,9.857227325E0,-3.112462163E-2,9.895726000E0
2.619249216E0,8.259995580E-1,9.890746117E0,1.125274822E-1,9.925814649E0
2.621249216E0,6.703764796E-1,9.969755173E0,2.801215947E-1,9.996193822E0
2.623249216E0,6.967126727E-1,1.000327396E1,6.464344859E-1,1.004832205E1
2.625249182E0,8.619126081E-1,9.759065628E0,7.757213712E-1,9.827715855E0
2.627248282E0,8.690952063E-1,9.720758438E0,6.440402865E-1,9.780759632E0
2.629247382E0,8.690952063E-1,9.720758438E0,6.440402865E-1,9.780759632E0
2.631247348E0,8.690952063E-1,9.720758438E0,6.440402865E-1,9.780759632E0
2.633247314E0,9.289502501E-1,9.646537781E0,4.189853072E-1,9.700215895E0
2.635247280E0,9.911994934E-1,9.605836868E0,2.705447972E-1,9.660630045E0
2.637247246E0,9.983820915E-1,9.586683273E0,2.561795712E-1,9.641933984E0
2.639247212E0,9.864110947E-1,9.541193008E0,2.968810201E-1,9.596640517E0
2.641247212E0,9.241618514E-1,9.519645691E0,4.118026793E-1,9.573260189E0
2.643247245E0,8.906430602E-1,9.514857292E0,4.836287498E-1,9.568680741E0
2.645247278E0,8.092401624E-1,9.502885818E0,5.865794420E-1,9.555301354E0
2.647248178E0,7.829039693E-1,9.462183952E0,6.033388376E-1,9.513668143E0
2.649249078E0,7.781155705E-1,9.452607155E0,5.841852427E-1,9.502553250E0
2.651249111E0,7.781155705E-1,9.466972351E0,4.548983276E-1,9.509782428E0
2.653249144E0,5.889736414E-1,9.565135002E0,2.873041928E-1,9.587556584E0
2.655249144E0,4.285621047E-1,9.723152161E0,1.651999205E-1,9.733994269E0
2.657249144E0,3.902548850E-1,9.821314812E0,9.816227108E-2,9.829555399E0
2.659249110E0,3.375824392E-1,1.000088024E1,-1.723825186E-1,1.000806091E1
2.661249076E0,5.746083856E-1,1.005594635E1,-2.298433632E-1,1.007497195E1
2.663249042E0,7.781155705E-1,1.007988834E1,-1.867477298E-1,1.011160163E1
2.665249008E0,1.941697598E0,9.727940559E0,2.753331959E-1,9.923649805E0
2.667248108E0,1.941697598E0,9.727940559E0,2.753331959E-1,9.923649805E0
2.669247208E0,1.941697598E0,9.727940559E0,2.753331959E-1,9.923649805E0
2.671247208E0,1.996764183E0,9.636960983E0,3.519476354E-1,9.847941477E0
2.673247241E0,1.972822189E0,9.478943825E0,5.099649429E-1,9.695486974E0
2.675247274E0,1.798045516E0,9.426271439E0,6.272808313E-1,9.616706409E0
2.677247307E0,1.654393315E0,9.411906242E0,6.871358752E-1,9.580874285E0
2.679247340E0,1.455674648E0,9.385569572E0,6.919242740E-1,9.522954588E0
2.681247373E0,1.479616642E0,9.359233856E0,6.320692301E-1,9.496527539E0
2.683247406E0,1.575384736E0,9.340080261E0,5.243301988E-1,9.486509290E0
2.685247439E0,1.613691926E0,9.409511566E0,4.716577232E-1,9.558523450E0
2.687248339E0,1.604115129E0,9.543587685E0,4.381389022E-1,9.687374099E0
2.689249205E0,1.584961534E0,9.613018990E0,4.501099288E-1,9.753196199E0
2.691249205E0,1.515529633E0,9.744700432E0,4.955997467E-1,9.874291655E0
2.693249205E0,1.470039845E0,9.850045204E0,5.506663918E-1,9.974349159E0
2.695249205E0,1.458068848E0,9.885957718E0,5.793967843E-1,1.000968658E1
2.697249205E0,1.455674648E0,9.890746117E0,6.488286853E-1,1.001832452E1
2.699249205E0,1.453280449E0,9.890746117E0,6.967126727E-1,1.002119211E1
2.701249205E0,1.458068848E0,9.876380920E0,6.991068721E-1,1.000787766E1
2.703249171E0,1.374271750E0,9.878775597E0,6.009446383E-1,9.991995026E0
2.705249137E0,1.223437071E0,9.859622002E0,6.081272364E-1,9.953831575E0
2.707248237E0,1.187524080E0,9.818920135E0,6.368576288E-1,9.910953219E0
2.709247303E0,1.187524080E0,9.818920135E0,6.368576288E-1,9.910953219E0
2.711247269E0,1.139639974E0,9.785401344E0,6.488286853E-1,9.872883946E0
2.713247235E0,1.096544385E0,9.756670952E0,6.655880809E-1,9.840632355E0
2.715247201E0,1.053448796E0,9.648932457E0,7.254431248E-1,9.733340621E0
2.717247167E0,7.350199223E-1,9.684844971E0,5.626373887E-1,9.728979249E0
2.719247167E0,5.099649429E-1,9.692028046E0,5.075707436E-1,9.718698469E0
2.721247200E0,4.189853072E-1,9.689633369E0,5.099649429E-1,9.712085655E0
2.723247233E0,3.208230138E-1,9.696816444E0,5.123591423E-1,9.715641433E0
2.725246966E0,3.854664862E-1,9.644144058E0,4.812345505E-1,9.663833904E0
2.727247866E0,3.926490843E-1,9.622595787E0,4.165911078E-1,9.639609491E0
2.729248766E0,3.351882398E-1,9.572318077E0,3.112462163E-1,9.583240513E0
2.731248799E0,2.561795712E-1,9.541193008E0,2.944868207E-1,9.549173497E0
2.733248799E0,2.801215947E-1,9.586683273E0,3.615244627E-1,9.597586375E0
2.735248799E0,4.309563041E-1,9.665691376E0,4.764461517E-1,9.687017810E0
2.737248765E0,4.644751251E-1,9.682451248E0,4.429273009E-1,9.703699496E0
2.739248731E0,4.141969085E-1,9.701604843E0,4.884171486E-1,9.722718083E0
2.741248697E0,3.256114423E-1,9.737517357E0,4.118026793E-1,9.751658758E0
2.743248663E0,3.112462163E-1,9.670479774E0,1.604115069E-1,9.676816890E0
2.745248629E0,8.140285611E-1,9.749488831E0,8.858546615E-2,9.783814304E0
2.747247729E0,8.140285611E-1,9.749488831E0,8.858546615E-2,9.783814304E0
2.749246862E0,8.140285611E-1,9.749488831E0,8.858546615E-2,9.783814304E0
2.751246862E0,9.385270476E-1,9.756670952E0,1.005564705E-1,9.802222844E0
2.753246895E0,1.034295082E0,9.759065628E0,1.532289088E-1,9.814917593E0
2.755246928E0,1.204283476E0,9.778219223E0,2.250549644E-1,9.854669939E0
2.757246961E0,1.314416766E0,9.814131737E0,2.801215947E-1,9.905722654E0
2.759246994E0,1.338358760E0,9.828496933E0,3.112462163E-1,9.924083350E0
2.761247027E0,1.321599364E0,9.847650528E0,3.184288144E-1,9.941038311E0
2.763247060E0,1.312022567E0,9.871592522E0,3.232172430E-1,9.963644490E0
2.765247093E0,1.328781962E0,9.873987198E0,3.327940404E-1,9.968552380E0
2.767247959E0,1.359906554E0,9.869198799E0,3.256114423E-1,9.967770743E0
2.769248859E0,1.271321058E0,9.845256805E0,2.801215947E-1,9.930951964E0
2.771248859E0,1.307234168E0,9.806949615E0,2.489969730E-1,9.896823805E0
2.773248859E0,1.448492050E0,9.778219223E0,2.226607651E-1,9.887430314E0
2.775248859E0,1.489193439E0,9.730335236E0,1.771709323E-1,9.845227800E0
2.777248859E0,1.505952835E0,9.696816444E0,2.035071403E-1,9.815169803E0
2.779248859E0,1.565807939E0,9.608230591E0,3.711012602E-1,9.742051413E0
2.781248825E0,1.599326730E0,9.569923401E0,5.386953950E-1,9.717585740E0
2.783248791E0,1.458068848E0,9.557952881E0,5.123591423E-1,9.682093778E0
2.785249057E0,1.237802267E0,9.292196274E0,4.309563041E-1,9.384177608E0
2.787248157E0,1.237802267E0,9.292196274E0,4.309563041E-1,9.384177608E0
2.789247257E0,1.237802267E0,9.292196274E0,4.309563041E-1,9.384177608E0
2.791247223E0,1.125274777E0,9.292196274E0,4.357447028E-1,9.370220294E0
2.793247189E0,1.012747288E0,9.316138268E0,4.884171486E-1,9.383743421E0
2.795247155E0,1.041477680E0,9.380781174E0,5.770025849E-1,9.456038450E0
2.797247155E0,1.012747288E0,9.423876762E0,6.033388376E-1,9.497322152E0
2.799247188E0,9.121908545E-1,9.550769806E0,5.410895944E-1,9.609478341E0
2.801247221E0,8.403648138E-1,9.653720856E0,3.351882398E-1,9.696024471E0
2.803247254E0,8.259995580E-1,9.696816444E0,2.729389966E-1,9.735759864E0
2.805247287E0,7.158663273E-1,9.773430824E0,2.657563984E-1,9.803215857E0
2.807248187E0,6.655880809E-1,9.787796021E0,2.753331959E-1,9.814263437E0
2.809249087E0,6.344634295E-1,9.794978142E0,2.873041928E-1,9.819708974E0
2.811249120E0,6.440402865E-1,9.754277229E0,3.399766386E-1,9.781426086E0
2.813249120E0,7.805097699E-1,9.677662849E0,3.950432837E-1,9.717119580E0
2.815249086E0,8.906430602E-1,9.639355659E0,4.118026793E-1,9.689169419E0
2.817249052E0,9.385270476E-1,9.639355659E0,4.094084799E-1,9.693586841E0
2.819249018E0,1.005564690E0,9.692028046E0,4.237737060E-1,9.753263666E0
2.821248984E0,1.039083481E0,9.773430824E0,4.932055473E-1,9.840878836E0
2.823248950E0,1.005564690E0,9.823708534E0,4.884171486E-1,9.887110853E0
2.825248916E0,8.571242094E-1,9.945813179E0,4.596867263E-1,9.993256406E0
2.827248049E0,8.571242094E-1,9.945813179E0,4.596867263E-1,9.993256406E0
2.829247182E0,8.571242094E-1,9.945813179E0,4.596867263E-1,9.993256406E0
2.831247215E0,9.074024558E-1,9.943418503E0,4.237737060E-1,9.993724776E0
2.833246848E0,9.026140571E-1,9.929053307E0,3.806780577E-1,9.977260520E0
2.835246881E0,7.445967197E-1,9.929053307E0,2.729389966E-1,9.960673649E0
2.837246914E0,6.057330370E-1,9.871592522E0,1.484405100E-1,9.891273225E0
2.839246947E0,5.123591423E-1,9.826103210E0,6.224924326E-2,9.839648935E0
2.841246980E0,5.219359994E-1,9.814131737E0,9.097966552E-2,9.828421859E0
2.843247013E0,4.333505034E-1,9.773430824E0,2.849099934E-1,9.787181231E0
2.845247013E0,5.291185975E-1,9.730335236E0,3.734954596E-1,9.751865931E0
2.847247879E0,6.943184733E-1,9.687239647E0,3.734954596E-1,9.719268953E0
2.849248745E0,7.062895298E-1,9.648932457E0,3.375824392E-1,9.680635535E0
2.851248745E0,6.344634295E-1,9.687239647E0,3.184288144E-1,9.713215365E0
2.853248745E0,4.357447028E-1,9.967360497E0,5.578489900E-1,9.992464371E0
2.855248745E0,4.525041282E-1,1.006552315E1,8.954314590E-1,1.011539983E1
2.857248745E0,6.392518282E-1,1.011580181E1,1.077390790E0,1.019307903E1
2.859248711E0,7.996633649E-1,9.895534515E0,1.010353088E0,9.979072011E0
2.861248677E0,8.547300100E-1,9.771036148E0,9.504981041E-1,9.854296395E0
2.863248643E0,8.044517636E-1,9.680056572E0,8.714894056E-1,9.752442343E0
2.865248609E0,1.273715258E0,9.845256805E0,3.543418646E-1,9.933629260E0
2.867247709E0,1.273715258E0,9.845256805E0,3.543418646E-1,9.933629260E0
2.869246809E0,1.273715258E0,9.845256805E0,3.543418646E-1,9.933629260E0
2.871246775E0,1.388636947E0,9.912294388E0,3.567360640E-1,1.001544573E1
2.873246741E0,1.450886250E0,9.979331970E0,3.711012602E-1,1.009107792E1
2.875246741E0,1.553836942E0,1.011819553E1,3.950432837E-1,1.024443016E1
2.877246774E0,1.561019540E0,1.020438671E1,4.548983276E-1,1.033311292E1
2.879246807E0,1.541865945E0,1.023311710E1,4.979939461E-1,1.036060009E1
2.881246840E0,1.549048543E0,1.026184750E1,5.195417404E-1,1.039110144E1
2.883246873E0,1.537077546E0,1.021875191E1,3.974374831E-1,1.034134684E1
2.885246906E0,1.620874524E0,1.013256073E1,2.466027737E-1,1.026434772E1
2.887247806E0,1.675941229E0,1.008228302E1,2.035071403E-1,1.022265254E1
2.889248706E0,1.805228114E0,9.972148895E0,1.819593310E-1,1.013586263E1
2.891248706E0,1.893813491E0,9.869198799E0,2.035071403E-1,1.005131980E1
2.893249072E0,1.908178806E0,9.826103210E0,2.106897533E-1,1.001188498E1
2.895249038E0,1.924938202E0,9.720758438E0,1.771709323E-1,9.911100909E0
2.897249004E0,1.932120800E0,9.617807388E0,7.182604820E-2,9.810222664E0
2.899248970E0,1.932120800E0,9.565135002E0,-2.394201607E-2,9.758353940E0
2.901248936E0,1.874659896E0,9.498097420E0,-1.699883193E-1,9.682825019E0
2.903248469E0,1.817199111E0,9.445425034E0,-1.460463107E-1,9.619750319E0
2.905248469E0,1.558625340E0,9.196428299E0,-4.788403399E-3,9.327573604E0
2.907247602E0,1.558625340E0,9.196428299E0,-4.788403399E-3,9.327573604E0
2.909246768E0,1.460463047E0,9.136572838E0,1.915361360E-2,9.252582472E0
2.911246801E0,1.321599364E0,9.136572838E0,1.915361360E-2,9.231682131E0
2.913246834E0,1.163581967E0,9.021651268E0,-2.394201700E-3,9.096379518E0
2.915246867E0,9.528923035E-1,8.933065414E0,6.224924326E-2,8.983959951E0
2.917246900E0,8.236053586E-1,8.901941299E0,1.460463107E-1,8.941152846E0
2.919246933E0,7.948749661E-1,8.916306496E0,1.699883193E-1,8.953281173E0
2.921246966E0,8.331822157E-1,9.024045944E0,3.112462163E-1,9.067771061E0
2.923246966E0,8.283938169E-1,9.198822021E0,3.806780577E-1,9.243888721E0
2.925246966E0,8.427590132E-1,9.407117844E0,4.022258818E-1,9.453353613E0
2.927247832E0,8.499416113E-1,9.529222488E0,4.046200812E-1,9.575604388E0
2.929248698E0,8.427590132E-1,9.787796021E0,3.471592367E-1,9.830143093E0
2.931248698E0,8.906430602E-1,9.905111313E0,3.232172430E-1,9.950323842E0
2.933248698E0,9.169792533E-1,1.009664822E1,2.585737705E-1,1.014149972E1
2.935248698E0,9.097966552E-1,1.020199299E1,2.035071403E-1,1.024450126E1
2.937248664E0,9.289502501E-1,1.022354031E1,2.106897533E-1,1.026781940E1
2.939248630E0,1.027112484E0,1.022114658E1,2.753331959E-1,1.027631286E1
2.941248596E0,1.115697980E0,1.016847420E1,3.208230138E-1,1.023452866E1
2.943248562E0,1.168370485E0,1.010861874E1,3.423708379E-1,1.018167374E1
2.945248528E0,1.295263171E0,9.859622002E0,3.040636182E-1,9.948985244E0
2.947247628E0,1.295263171E0,9.859622002E0,3.040636182E-1,9.948985244E0
2.949246728E0,1.295263171E0,9.859622002E0,3.040636182E-1,9.948985244E0
2.951246694E0,1.283292055E0,9.842862129E0,2.633621991E-1,9.929659261E0
2.953246694E0,1.292868972E0,9.818920135E0,2.825157940E-1,9.907699934E0
2.955246727E0,1.199495077E0,9.806949615E0,2.585737705E-1,9.883415887E0
2.957246760E0,1.146822572E0,9.814131737E0,2.154781520E-1,9.883259310E0
2.959246793E0,1.055842996E0,9.814131737E0,1.963245422E-1,9.872716420E0
2.961246826E0,9.504981041E-1,9.809343338E0,1.699883193E-1,9.856751970E0
2.963247292E0,9.050082564E-1,9.818920135E0,1.221042871E-1,9.861295150E0
2.965247325E0,8.188169599E-1,9.806949615E0,1.412578970E-1,9.842086962E0
2.967248225E0,7.230489254E-1,9.826103210E0,1.771709323E-1,9.854262712E0
2.969249091E0,6.775590777E-1,9.826103210E0,2.753331959E-1,9.853283665E0
2.971249057E0,5.482721925E-1,9.816526413E0,3.016694188E-1,9.836452493E0
2.973249023E0,4.381389022E-1,9.823708534E0,3.758896589E-1,9.840655877E0
2.975248989E0,3.663128614E-1,9.826103210E0,4.046200812E-1,9.841250267E0
2.977248955E0,3.543418646E-1,9.809343338E0,4.285621047E-1,9.825092384E0
2.979248921E0,5.003881454E-1,9.663297653E0,6.320692301E-1,9.696866573E0
2.981248887E0,6.272808313E-1,9.478943825E0,6.512228847E-1,9.521971882E0
2.983248887E0,6.320692301E-1,9.419088364E0,5.793967843E-1,9.458035618E0
2.985248887E0,9.385270476E-1,9.440636635E0,4.716577232E-1,9.498890151E0
2.987248053E0,9.385270476E-1,9.440636635E0,4.716577232E-1,9.498890151E0
2.989247219E0,9.385270476E-1,9.440636635E0,4.716577232E-1,9.498890151E0
2.991247052E0,1.024718285E0,9.481337547E0,4.812345505E-1,9.548685561E0
2.993247085E0,1.261744261E0,9.522039413E0,5.339069963E-1,9.620098225E0
2.995247118E0,1.381454349E0,9.526827812E0,5.817909837E-1,9.644031575E0
2.997247151E0,1.529894829E0,9.488520622E0,6.967126727E-1,9.636286128E0
2.999246784E0,1.613691926E0,9.414299965E0,8.475474119E-1,9.589128327E0
3.001246817E0,1.661576033E0,9.354445457E0,8.858546019E-1,9.542076457E0
3.003246817E0,1.666364431E0,9.282619476E0,8.068459630E-1,9.465452719E0
3.005246817E0,1.661576033E0,9.306561470E0,6.224924326E-1,9.474197493E0
3.007247683E0,1.675941229E0,9.337685585E0,5.291185975E-1,9.501637626E0
3.009248549E0,1.716642618E0,9.414299965E0,4.261679053E-1,9.579014813E0
3.011248549E0,1.719036818E0,9.510068893E0,3.423708379E-1,9.670249000E0
3.013248549E0,1.699883223E0,9.567529678E0,3.351882398E-1,9.723146521E0
3.015248515E0,1.604115129E0,9.591471672E0,3.351882398E-1,9.730460695E0
3.017248481E0,1.400607944E0,9.641749382E0,3.519476354E-1,9.749302585E0
3.019248447E0,1.338358760E0,9.653720856E0,4.118026793E-1,9.754748176E0
3.021248413E0,1.283292055E0,9.627384186E0,4.932055473E-1,9.725050975E0
3.023248379E0,1.137245774E0,9.557952881E0,5.913678408E-1,9.643521512E0
3.025248345E0,1.098938584E0,9.622595787E0,2.394201756E-1,9.688102895E0
3.027247445E0,1.192312479E0,9.682451248E0,1.460463107E-1,9.756679801E0
3.029246545E0,1.192312479E0,9.682451248E0,1.460463107E-1,9.756679801E0
3.031246545E0,1.304839969E0,9.739912033E0,8.140286058E-2,9.827264125E0
3.033246578E0,1.422155857E0,9.794978142E0,4.548983276E-2,9.897787298E0
3.035246611E0,1.616086125E0,9.883563995E0,4.070143029E-2,1.001490031E1
3.037246644E0,1.625662923E0,9.931447983E0,1.556231081E-1,1.006482278E1
3.039246677E0,1.596932530E0,9.955389977E0,2.011129409E-1,1.008466308E1
3.041246710E0,1.520318031E0,1.001285076E1,2.633621991E-1,1.013103681E1
3.043246743E0,1.462857246E0,1.002482224E1,3.016694188E-1,1.013548305E1
3.045246776E0,1.498770237E0,1.002961063E1,3.232172430E-1,1.014612591E1
3.047247642E0,1.515529633E0,1.003439903E1,3.639186621E-1,1.015472456E1
3.049248475E0,1.496376038E0,9.976937294E0,4.429273009E-1,1.009824755E1
3.051248641E0,1.438915253E0,9.857227325E0,5.123591423E-1,9.974864387E0
3.053248607E0,1.400607944E0,9.773430824E0,5.602431893E-1,9.889162003E0
3.055248573E0,1.345541358E0,9.610625267E0,5.722141862E-1,9.721215389E0
3.057248539E0,1.307234168E0,9.476549149E0,5.458779931E-1,9.581848867E0
3.059248905E0,1.309628367E0,9.411906242E0,5.243301988E-1,9.517038811E0
3.061248871E0,1.357512355E0,9.323320389E0,4.525041282E-1,9.432491869E0
3.063248871E0,1.261744261E0,9.313743591E0,5.219359994E-1,9.413300986E0
3.065248904E0,9.361328483E-1,9.409511566E0,6.703764796E-1,9.479697107E0
3.067248070E0,9.361328483E-1,9.409511566E0,6.703764796E-1,9.479697107E0
3.069247236E0,9.361328483E-1,9.409511566E0,6.703764796E-1,9.479697107E0
3.071247269E0,9.217676520E-1,9.471760750E0,6.057330370E-1,9.535765298E0
3.073247302E0,8.475474119E-1,9.627384186E0,6.464344859E-1,9.686213936E0
3.075247335E0,6.440402865E-1,9.826103210E0,6.464344859E-1,9.868382326E0
3.077247368E0,4.453215301E-1,9.929053307E0,6.775590777E-1,9.962103048E0
3.079247401E0,5.003881454E-1,1.008946514E1,6.224924326E-1,1.012102722E1
3.081247401E0,7.422025204E-1,1.017805099E1,4.501099288E-1,1.021499807E1
3.083247401E0,8.116343617E-1,1.024030018E1,4.381389022E-1,1.028175393E1
3.085247401E0,7.900865674E-1,1.024269390E1,4.357447028E-1,1.028235812E1
3.087248267E0,7.781155705E-1,1.022593498E1,3.639186621E-1,1.026195142E1
3.089249133E0,9.002198577E-1,1.019959831E1,2.274491638E-1,1.024177400E1
3.091249133E0,1.007958889E0,1.014932060E1,2.561795712E-1,1.020246626E1
3.093249099E0,1.058237195E0,9.988908768E0,3.830722570E-1,1.005210966E1
3.095249065E0,9.528923035E-1,9.794978142E0,3.902548850E-1,9.848954230E0
3.097249031E0,8.978256583E-1,9.653720856E0,5.099649429E-1,9.708783730E0
3.099248997E0,8.331822157E-1,9.428665161E0,5.075707436E-1,9.479005612E0
3.101248963E0,1.221042871E0,9.265859604E0,3.998316824E-1,9.354515769E0
3.103248929E0,1.395819545E0,9.134179115E0,4.884171486E-1,9.253112537E0
3.105248895E0,1.125274777E0,8.834903717E0,6.200982332E-1,8.927837859E0
3.107247995E0,1.151610970E0,8.801384926E0,6.584054828E-1,8.900791101E0
3.109247128E0,1.151610970E0,8.801384926E0,6.584054828E-1,8.900791101E0
3.111246894E0,1.151610970E0,8.801384926E0,6.584054828E-1,8.900791101E0
3.113246927E0,1.213860273E0,8.806173325E0,6.607996821E-1,8.913966659E0
3.115246960E0,1.244984865E0,8.928277016E0,5.458779931E-1,9.031173820E0
3.117246993E0,1.321599364E0,8.966584206E0,4.860229492E-1,9.076479246E0
3.119247026E0,1.455674648E0,9.047987938E0,4.405331016E-1,9.174919281E0
3.121247059E0,1.379060149E0,9.215581894E0,5.051765442E-1,9.331878690E0
3.123247092E0,1.331176162E0,9.296984673E0,5.123591423E-1,9.405767691E0
3.125247092E0,1.403002143E0,9.402329445E0,5.267243981E-1,9.521011112E0
3.127247925E0,1.467645645E0,9.464578629E0,4.979939461E-1,9.590632426E0
3.129248758E0,1.503558636E0,9.500492096E0,4.620809257E-1,9.629826448E0
3.131248724E0,1.640028119E0,9.589076996E0,3.806780577E-1,9.735759120E0
3.133248690E0,1.862688899E0,9.648932457E0,1.436520964E-1,9.828130210E0
3.135248656E0,1.280897856E0,9.778219223E0,6.871358752E-1,9.885667717E0
3.137248622E0,1.120486379E0,9.840468407E0,7.733271718E-1,9.934200678E0
3.139248588E0,1.335964561E0,9.919476509E0,5.674257874E-1,1.002510786E1
3.141248588E0,1.462857246E0,9.924264908E0,4.764461517E-1,1.004280769E1
3.143248621E0,1.419761658E0,9.852438927E0,4.094084799E-1,9.962624718E0
3.145248654E0,1.094150186E0,9.759065628E0,3.303998411E-1,9.825766668E0
3.147247820E0,1.094150186E0,9.759065628E0,3.303998411E-1,9.825766668E0
3.149246986E0,1.094150186E0,9.759065628E0,3.303998411E-1,9.825766668E0
3.151247019E0,1.055842996E0,9.790189743E0,3.495534360E-1,9.853162296E0
3.153247052E0,1.003170490E0,9.893140793E0,3.782838583E-1,9.951064489E0
3.155247085E0,9.983820915E-1,9.957783699E0,3.830722570E-1,1.001503706E1
3.157247118E0,1.017535686E0,1.012777233E1,3.687070608E-1,1.018543549E1
3.159247118E0,1.043871999E0,1.026424217E1,3.423708379E-1,1.032286559E1
3.161247118E0,1.022324085E0,1.030015469E1,3.471592367E-1,1.035658499E1
3.163247118E0,8.738836050E-1,1.034564495E1,4.070142806E-1,1.039046210E1
3.165247118E0,7.948749661E-1,1.038874054E1,4.333505034E-1,1.042811339E1
3.167247984E0,8.116343617E-1,1.039831734E1,4.213795066E-1,1.043845364E1
3.169248850E0,8.355764151E-1,1.037676907E1,3.495534360E-1,1.041622349E1
3.171248683E0,9.193734527E-1,1.032409668E1,2.825157940E-1,1.036880104E1
3.173248649E0,9.624691010E-1,1.029776096E1,2.274491638E-1,1.034514189E1
3.175248615E0,9.840168953E-1,1.024508858E1,2.106897533E-1,1.029439262E1
3.177248581E0,1.063025594E0,1.017565632E1,2.082955539E-1,1.023315161E1
3.179248547E0,1.110909581E0,1.010143661E1,2.394201756E-1,1.016515931E1
3.181248513E0,1.127668977E0,1.005594635E1,2.513911724E-1,1.012209918E1
3.183248479E0,1.110909581E0,9.986514091E0,3.256114423E-1,1.005338782E1
3.185248445E0,9.481038451E-1,9.840468407E0,4.501099288E-1,9.896278003E0
3.187247578E0,9.504981041E-1,9.823708534E0,4.668693244E-1,9.880620577E0
3.189246744E0,9.504981041E-1,9.823708534E0,4.668693244E-1,9.880620577E0
3.191246777E0,9.504981041E-1,9.783007622E0,4.764461517E-1,9.840614092E0
3.193246810E0,9.552865028E-1,9.749488831E0,4.788403511E-1,9.807874023E0
3.195246843E0,9.816226959E-1,9.692028046E0,4.309563041E-1,9.751139118E0
3.197246876E0,1.003170490E0,9.627384186E0,3.734954596E-1,9.686711318E0
3.199246909E0,1.027112484E0,9.603442192E0,3.495534360E-1,9.664535664E0
3.201246942E0,1.127668977E0,9.557952881E0,3.327940404E-1,9.629997532E0
3.203246942E0,1.264138460E0,9.502885818E0,3.591302633E-1,9.593323693E0
3.205246908E0,1.443703651E0,9.392752647E0,4.333505034E-1,9.512931997E0
3.207248174E0,1.527500629E0,9.335291862E0,4.955997467E-1,9.472410012E0
3.209249007E0,1.640028119E0,9.246706009E0,5.961562395E-1,9.409923831E0
3.211250073E0,1.702277422E0,9.196428299E0,6.751648784E-1,9.376987229E0
3.213250039E0,1.606509328E0,9.186851501E0,7.230489254E-1,9.354245693E0
3.215250005E0,1.584961534E0,9.158121109E0,5.386953950E-1,9.309859185E0
3.217249971E0,1.874659896E0,9.222764015E0,7.709329724E-1,9.442884276E0
3.219249971E0,1.814804912E0,9.275436401E0,7.805097699E-1,9.483482103E0
3.221249971E0,1.740584612E0,9.328108788E0,7.517793179E-1,9.518845544E0
3.223249971E0,1.704671621E0,9.375992775E0,7.086837292E-1,9.556012687E0
3.225249971E0,1.398213744E0,9.608230591E0,3.758896589E-1,9.716706736E0
3.227249104E0,1.398213744E0,9.608230591E0,3.758896589E-1,9.716706736E0
3.229248237E0,1.398213744E0,9.608230591E0,3.758896589E-1,9.716706736E0
3.231248637E0,1.398213744E0,9.608230591E0,3.758896589E-1,9.716706736E0
3.233248637E0,1.800439715E0,9.694421768E0,6.200982332E-1,9.879671979E0
3.235248637E0,1.654393315E0,9.754277229E0,6.607996821E-1,9.915623920E0
3.237248670E0,1.599326730E0,9.756670952E0,6.440402865E-1,9.907838409E0
3.239248703E0,1.549048543E0,9.756670952E0,6.344634295E-1,9.899228419E0
3.241248736E0,1.472434044E0,9.754277229E0,5.650315881E-1,9.880953748E0
3.243248769E0,1.359906554E0,9.790189743E0,4.213795066E-1,9.893165405E0
3.245248802E0,1.278503656E0,9.811738014E0,3.782838583E-1,9.901912600E0
3.247249702E0,1.120486379E0,9.885957718E0,3.711012602E-1,9.956172250E0
3.249250568E0,9.959878922E-1,9.933841705E0,5.315127969E-1,9.997785193E0
3.251250568E0,8.523358107E-1,9.948206902E0,5.650315881E-1,1.000062786E1
3.253250534E0,6.416460276E-1,1.001763916E1,3.040636182E-1,1.004277146E1
3.255250500E0,7.517793179E-1,1.007270622E1,2.298433632E-1,1.010333662E1
3.257250466E0,7.972691655E-1,1.007031155E1,2.418143749E-1,1.010471607E1
3.259250432E0,8.714894056E-1,1.004397583E1,2.561795712E-1,1.008496764E1
3.261250398E0,9.840168953E-1,1.002721596E1,2.442085743E-1,1.007834247E1
3.263250364E0,1.053448796E0,1.001285076E1,2.633621991E-1,1.007155869E1
3.265250364E0,1.058237195E0,9.955389977E0,2.705447972E-1,1.001513105E1
3.267249097E0,1.058237195E0,9.955389977E0,2.705447972E-1,1.001513105E1
3.269248230E0,1.058237195E0,9.955389977E0,2.705447972E-1,1.001513105E1
3.271247163E0,1.079784989E0,9.909899712E0,2.968810201E-1,9.972972789E0
3.273247196E0,1.170764685E0,9.828496933E0,2.873041928E-1,9.902150555E0
3.275247229E0,1.168370485E0,9.785401344E0,2.442085743E-1,9.857931167E0
3.277247262E0,1.144428372E0,9.771036148E0,2.346317619E-1,9.840625781E0
3.279247295E0,1.091755986E0,9.783007622E0,2.489969730E-1,9.846886247E0
3.281247328E0,1.168370485E0,9.783007622E0,2.920926213E-1,9.856857807E0
3.283247328E0,1.225831270E0,9.768642426E0,3.160346150E-1,9.850325630E0
3.285247328E0,1.403002143E0,9.689633369E0,4.046200812E-1,9.799037058E0
3.287248194E0,1.417367458E0,9.670479774E0,3.998316824E-1,9.781971936E0
3.289249060E0,1.414973259E0,9.636960983E0,3.758896589E-1,9.747536066E0
3.291249060E0,1.472434044E0,9.557952881E0,3.184288144E-1,9.675945545E0
3.293249060E0,1.572990537E0,9.459790230E0,2.729389966E-1,9.593561701E0
3.295249060E0,1.671152830E0,9.426271439E0,2.681505978E-1,9.577016746E0
3.297249026E0,1.716642618E0,9.378387451E0,2.777273953E-1,9.538246462E0
3.299248992E0,1.817199111E0,9.347262383E0,2.873041928E-1,9.526598047E0
3.301248958E0,1.848323703E0,9.364022255E0,2.705447972E-1,9.548529090E0
3.303248924E0,1.872265697E0,9.352050781E0,2.873041928E-1,9.541948247E0
3.305248890E0,1.980004787E0,9.435848236E0,2.801215947E-1,9.645419587E0
3.307247990E0,1.980004787E0,9.469367027E0,2.801215947E-1,9.678212591E0
3.309247056E0,1.980004787E0,9.469367027E0,2.801215947E-1,9.678212591E0
3.311247022E0,1.984793186E0,9.488520622E0,2.968810201E-1,9.698431107E0
3.313247022E0,1.900996208E0,9.543587685E0,3.232172430E-1,9.736442978E0
3.315247055E0,1.886630893E0,9.565135002E0,3.567360640E-1,9.755944052E0
3.317247088E0,1.829170108E0,9.629778862E0,4.477157295E-1,9.812183936E0
3.319246821E0,1.721431017E0,9.656114578E0,5.386953950E-1,9.823139326E0
3.321246854E0,1.690306425E0,9.639355659E0,5.865794420E-1,9.803998612E0
3.323246887E0,1.747767210E0,9.579500198E0,5.913678408E-1,9.755574314E0
3.325246920E0,1.728613615E0,9.555558205E0,6.320692301E-1,9.731202862E0
3.327247786E0,1.661576033E0,9.545981407E0,6.416460276E-1,9.710731464E0
3.329248686E0,1.632845521E0,9.519645691E0,6.296750307E-1,9.679169862E0
3.331248652E0,1.498770237E0,9.562741280E0,5.913678408E-1,9.697527980E0
3.333248618E0,1.472434044E0,9.574711800E0,5.746083856E-1,9.704295073E0
3.335248584E0,1.477222443E0,9.632172585E0,5.530605912E-1,9.760471856E0
3.337248550E0,1.410184860E0,9.761459351E0,5.027823448E-1,9.875601252E0
3.339248516E0,1.343147159E0,9.818920135E0,5.027823448E-1,9.923105714E0
3.341248482E0,1.316810966E0,9.888352394E0,5.195417404E-1,9.989165521E0
3.343248482E0,1.154005170E0,9.967360497E0,4.884171486E-1,1.004582274E1
