"Time (s)","Acceleration x (m/s^2)","Acceleration y (m/s^2)","Acceleration z (m/s^2)","Absolute acceleration (m/s^2)"
2.617513370E-1,-1.517923832E0,9.684844971E0,-2.633621916E-2,9.803112182E0
2.637513370E-1,-1.520318031E0,9.658509254E0,-3.112462163E-2,9.777481101E0
2.657513370E-1,-1.525106430E0,9.660902977E0,-2.154781483E-2,9.780565437E0
2.677508370E-1,-1.529894829E0,9.658509254E0,-2.633621916E-2,9.778960722E0
2.697505030E-1,-1.520318031E0,9.658509254E0,-3.591302410E-2,9.777497516E0
2.717502530E-1,-1.510741234E0,9.648932457E0,-3.112462163E-2,9.766534973E0
2.737500530E-1,-1.527500629E0,9.639355659E0,-3.351882473E-2,9.759690529E0
2.757498860E-1,-1.513135433E0,9.632172585E0,-2.633621916E-2,9.750334411E0
2.777497430E-1,-1.503558636E0,9.615413666E0,-1.436521020E-2,9.732269771E0
2.797496180E-1,-1.491587639E0,9.610625267E0,-1.915361360E-2,9.725704014E0
2.817495060E-1,-1.472434044E0,9.598653793E0,-7.182605099E-3,9.710935498E0
2.837494060E-1,-1.470039845E0,9.598653793E0,-2.394201700E-3,9.710570401E0
2.857493150E-1,-1.474828243E0,9.593865395E0,7.182605099E-3,9.706565981E0
2.877492310E-1,-1.465251446E0,9.574711800E0,7.182605099E-3,9.686181881E0
2.897491540E-1,-1.465251446E0,9.577106476E0,7.182605099E-3,9.688549006E0
2.917490820E-1,-1.455674648E0,9.596260071E0,1.436521020E-2,9.706049783E0
2.937490150E-1,-1.448492050E0,9.608230591E0,-1.436521020E-2,9.716811754E0
2.957473270E-1,-1.436521053E0,9.613018990E0,-1.675941236E-2,9.719774056E0
2.977457380E-1,-1.436521053E0,9.613018990E0,-1.675941236E-2,9.719774056E0
2.997457380E-1,-1.431732655E0,9.605836868E0,-1.197100803E-2,9.711956736E0
3.017457380E-1,-1.453280449E0,9.608230591E0,-7.182605099E-3,9.717518754E0
3.037457380E-1,-1.458068848E0,9.639355659E0,-2.633621916E-2,9.749042819E0
3.057457380E-1,-1.434126854E0,9.634567261E0,-1.915361360E-2,9.740737806E0
3.077457380E-1,-1.431732655E0,9.653720856E0,-1.675941236E-2,9.759327110E0
3.097457380E-1,-1.419761658E0,9.665691376E0,-1.675941236E-2,9.769421365E0
3.117457380E-1,-1.405396342E0,9.677662849E0,-2.154781483E-2,9.779200449E0
3.137457380E-1,-1.398213744E0,9.677662849E0,-1.915361360E-2,9.778165818E0
3.157452380E-1,-1.391031146E0,9.680056572E0,-1.675941236E-2,9.779506315E0
3.177452000E-1,-1.369483352E0,9.687239647E0,-2.154781483E-2,9.783586302E0
3.197451640E-1,-1.369483352E0,9.699210167E0,-3.351882473E-2,9.795472731E0
3.217451290E-1,-1.379060149E0,9.701604843E0,-2.154781483E-2,9.799153419E0
3.237450950E-1,-1.381454349E0,9.703998566E0,-1.675941236E-2,9.801851109E0
3.257450610E-1,-1.374271750E0,9.687239647E0,-4.788403399E-3,9.784235164E0
3.277450610E-1,-1.376665950E0,9.687239647E0,0.000000000E0,9.784570564E0
3.297450610E-1,-1.379060149E0,9.684844971E0,1.915361360E-2,9.782555692E0
3.317450940E-1,-1.359906554E0,9.677662849E0,1.197100803E-2,9.772750246E0
3.337451270E-1,-1.393425345E0,9.656114578E0,3.591302410E-2,9.756201755E0
3.357442930E-1,-1.393425345E0,9.656114578E0,3.591302410E-2,9.756201755E0
3.377434590E-1,-1.388636947E0,9.639355659E0,4.070143029E-2,9.738949980E0
3.397434920E-1,-1.391031146E0,9.634567261E0,4.788403213E-2,9.734585088E0
3.417435250E-1,-1.398213744E0,9.639355659E0,5.267243832E-2,9.740377487E0
3.437435580E-1,-1.414973259E0,9.624990463E0,5.267243832E-2,9.728584950E0
3.457435580E-1,-1.398213744E0,9.615413666E0,5.267243832E-2,9.716684415E0
3.477435580E-1,-1.400607944E0,9.598653793E0,6.703764945E-2,9.700533558E0
3.497435580E-1,-1.395819545E0,9.593865395E0,8.379705995E-2,9.695235292E0
3.517435580E-1,-1.371877551E0,9.598653793E0,8.619125932E-2,9.696578345E0
3.537435580E-1,-1.381454349E0,9.603442192E0,8.379705995E-2,9.702656337E0
3.557444240E-1,-1.407790542E0,9.608230591E0,9.337386489E-2,9.711266034E0
3.577452900E-1,-1.388636947E0,9.627384186E0,7.661445439E-2,9.727317647E0
3.597452560E-1,-1.376665950E0,9.617807388E0,5.506663769E-2,9.715989936E0
3.617452220E-1,-1.391031146E0,9.639355659E0,4.788403213E-2,9.739324312E0
3.637451880E-1,-1.412579060E0,9.641749382E0,5.027823523E-2,9.744805726E0
3.657451540E-1,-1.410184860E0,9.644144058E0,4.548983276E-2,9.746804875E0
3.677451200E-1,-1.426944256E0,9.663297653E0,2.633621916E-2,9.768120855E0
3.697450860E-1,-1.422155857E0,9.680056572E0,5.027823523E-2,9.784096812E0
3.717450520E-1,-1.410184860E0,9.701604843E0,6.464344263E-2,9.803771552E0
3.737450180E-1,-1.422155857E0,9.708786964E0,4.788403213E-2,9.812510611E0
3.757445510E-1,-1.424550056E0,9.703998566E0,3.591302410E-2,9.808069166E0
3.777437170E-1,-1.424550056E0,9.703998566E0,3.591302410E-2,9.808069166E0
3.797437500E-1,-1.424550056E0,9.703998566E0,3.591302410E-2,9.808069166E0
3.817437830E-1,-1.438915253E0,9.689633369E0,2.394201700E-3,9.795890856E0
3.837438160E-1,-1.455674648E0,9.692028046E0,9.576806799E-3,9.800739158E0
3.857438490E-1,-1.467645645E0,9.692028046E0,7.182605099E-3,9.802522276E0
3.877438820E-1,-1.467645645E0,9.696816444E0,1.197100803E-2,9.807261402E0
3.897439150E-1,-1.482010841E0,9.701604843E0,-7.182605099E-3,9.814150206E0
3.917439150E-1,-1.489193439E0,9.696816444E0,-2.394201700E-3,9.810502127E0
3.937438810E-1,-1.505952835E0,9.694421768E0,1.197100803E-2,9.810700824E0
3.957447140E-1,-1.501164436E0,9.689633369E0,4.070143029E-2,9.805312137E0
3.977455470E-1,-1.508347034E0,9.684844971E0,3.351882473E-2,9.801655799E0
3.997455130E-1,-1.496376038E0,9.677662849E0,2.633621916E-2,9.792701010E0
4.017454790E-1,-1.513135433E0,9.680056572E0,-2.394201700E-3,9.797605820E0
4.037454450E-1,-1.496376038E0,9.660902977E0,-2.154781483E-2,9.776126630E0
4.057454450E-1,-1.498770237E0,9.660902977E0,-2.394201607E-2,9.776498953E0
4.077454450E-1,-1.477222443E0,9.656114578E0,-2.154781483E-2,9.768479882E0
4.097454780E-1,-1.472434044E0,9.634567261E0,-2.394201607E-2,9.746462001E0
4.117455110E-1,-1.472434044E0,9.620202065E0,-2.394201607E-2,9.732261967E0
4.137455440E-1,-1.472434044E0,9.593865395E0,9.576806799E-3,9.706204559E0
4.157447100E-1,-1.472434044E0,9.593865395E0,9.576806799E-3,9.706204559E0
4.177438760E-1,-1.472434044E0,9.593865395E0,9.576806799E-3,9.706204559E0
4.197444760E-1,-1.470039845E0,9.589076996E0,1.915361360E-2,9.701122700E0
4.217445090E-1,-1.450886250E0,9.577106476E0,7.182605099E-3,9.686386888E0
4.237445090E-1,-1.450886250E0,9.574711800E0,7.182605099E-3,9.684019235E0
4.257445090E-1,-1.453280449E0,9.572318077E0,7.182605099E-3,9.682011621E0
4.277445090E-1,-1.467645645E0,9.596260071E0,1.675941236E-2,9.707856198E0
4.297445090E-1,-1.465251446E0,9.591471672E0,4.788403399E-3,9.702747733E0
4.317445090E-1,-1.462857246E0,9.610625267E0,-1.197100803E-2,9.721327721E0
4.337445090E-1,-1.465251446E0,9.613018990E0,-3.830722719E-2,9.724122754E0
4.357452750E-1,-1.465251446E0,9.624990463E0,-2.154781483E-2,9.735906097E0
4.377461080E-1,-1.448492050E0,9.663297653E0,-1.197100803E-2,9.771263688E0
4.397460740E-1,-1.438915253E0,9.682451248E0,0.000000000E0,9.788786405E0
4.417460400E-1,-1.446097851E0,9.660902977E0,-1.915361360E-2,9.768552205E0
4.437460060E-1,-1.446097851E0,9.663297653E0,-1.915361360E-2,9.770920499E0
4.457459720E-1,-1.776497602E0,9.756670952E0,2.274491638E-1,9.919692783E0
4.477459380E-1,-1.857900500E0,9.754277229E0,1.580173075E-1,9.930895630E0
4.497459040E-1,-1.795651317E0,9.723152161E0,3.591302410E-2,9.887635781E0
4.517458700E-1,-1.659181833E0,9.696816444E0,-1.268926859E-1,9.838558597E0
4.537459700E-1,-1.374271750E0,9.656114578E0,-1.340752989E-1,9.754339946E0
4.557451360E-1,-1.352723956E0,9.646537781E0,-7.661445439E-2,9.741222871E0
4.577443020E-1,-1.352723956E0,9.646537781E0,-7.661445439E-2,9.741222871E0
4.597443350E-1,-1.340752959E0,9.644144058E0,-1.675941236E-2,9.736909879E0
4.617443680E-1,-1.345541358E0,9.641749382E0,3.112462163E-2,9.735234020E0
4.637444010E-1,-1.393425345E0,9.634567261E0,7.422025502E-2,9.735092662E0
4.657444340E-1,-1.429338455E0,9.646537781E0,7.661445439E-2,9.752157164E0
4.677444670E-1,-1.455674648E0,9.653720856E0,7.182604820E-2,9.763118048E0
4.697444670E-1,-1.458068848E0,9.646537781E0,6.464344263E-2,9.756322806E0
4.717444330E-1,-1.450886250E0,9.646537781E0,3.351882473E-2,9.755095365E0
4.737443990E-1,-1.448492050E0,9.668086052E0,-2.394201700E-3,9.775992168E0
4.757452320E-1,-1.434126854E0,9.670479774E0,-2.154781483E-2,9.776265300E0
4.777460650E-1,-1.412579060E0,9.668086052E0,-3.112462163E-2,9.770784833E0
4.797454650E-1,-1.393425345E0,9.687239647E0,-1.915361360E-2,9.786961379E0
4.817454310E-1,-1.381454349E0,9.687239647E0,-1.436521020E-2,9.785255973E0
4.837454310E-1,-1.395819545E0,9.701604843E0,-4.788403399E-3,9.801503541E0
4.857454310E-1,-1.410184860E0,9.694421768E0,1.915361360E-2,9.796468834E0
4.877454640E-1,-1.429338455E0,9.692028046E0,4.070143029E-2,9.796942006E0
4.897454970E-1,-1.470039845E0,9.715970039E0,6.224924326E-2,9.826747474E0
4.917455300E-1,-1.489193439E0,9.708786964E0,3.830722719E-2,9.822408506E0
4.937455630E-1,-1.522712231E0,9.684844971E0,-1.436521020E-2,9.803829915E0
4.957448290E-1,-1.522712231E0,9.684844971E0,-1.436521020E-2,9.803829915E0
4.977439950E-1,-1.522712231E0,9.684844971E0,-1.436521020E-2,9.803829915E0
4.997440280E-1,-1.515529633E0,9.684844971E0,-1.675941236E-2,9.802720696E0
5.017440280E-1,-1.501164436E0,9.672874451E0,-9.576806799E-3,9.788671336E0
5.037440280E-1,-1.489193439E0,9.687239647E0,-1.675941236E-2,9.801050452E0
5.057440280E-1,-1.474828243E0,9.684844971E0,-4.788403399E-3,9.796497506E0
5.077440280E-1,-1.482010841E0,9.689633369E0,1.197100803E-2,9.802320862E0
5.097440280E-1,-1.505952835E0,9.658509254E0,3.351882473E-2,9.775265647E0
5.117440280E-1,-1.515529633E0,9.670479774E0,2.394201607E-2,9.788543424E0
5.137439280E-1,-1.527500629E0,9.670479774E0,2.394201607E-2,9.790403999E0
5.157447610E-1,-1.551442742E0,9.648932457E0,2.873042040E-2,9.772906302E0
5.177455940E-1,-1.561019540E0,9.634567261E0,2.873042040E-2,9.760250701E0
5.197455600E-1,-1.570596337E0,9.636960983E0,3.591302410E-2,9.764173267E0
5.217455260E-1,-1.587355733E0,9.644144058E0,2.633621916E-2,9.773940169E0
5.237454920E-1,-1.620874524E0,9.622595787E0,2.873042040E-2,9.758197033E0
5.257454580E-1,-1.630451322E0,9.624990463E0,3.830722719E-2,9.762186250E0
5.277454240E-1,-1.649604917E0,9.627384186E0,2.873042040E-2,9.767729935E0
5.297453900E-1,-1.680729628E0,9.634567261E0,5.985504389E-2,9.780251582E0
5.317453900E-1,-1.675941229E0,9.639355659E0,5.746084079E-2,9.784132986E0
5.337454230E-1,-1.611297727E0,9.613018990E0,9.576806426E-2,9.747593856E0
5.357445890E-1,-1.611297727E0,9.613018990E0,9.576806426E-2,9.747593856E0
5.377437550E-1,-1.611297727E0,9.613018990E0,9.576806426E-2,9.747593856E0
5.397437880E-1,-1.606509328E0,9.617807388E0,8.619125932E-2,9.751436823E0
5.417438210E-1,-1.582567334E0,9.613018990E0,5.027823523E-2,9.742544912E0
5.437438540E-1,-1.551442742E0,9.598653793E0,3.351882473E-2,9.723284051E0
5.457438870E-1,-1.532289028E0,9.586683273E0,2.873042040E-2,9.708410338E0
5.477438870E-1,-1.501164436E0,9.593865395E0,4.788403399E-3,9.710600950E0
5.497438530E-1,-1.479616642E0,9.591471672E0,-2.873042040E-2,9.704968814E0
5.517438190E-1,-1.460463047E0,9.593865395E0,-2.633621916E-2,9.704426779E0
5.537437850E-1,-1.407790542E0,9.617807388E0,-1.675941236E-2,9.720307302E0
5.557446180E-1,-1.398213744E0,9.627384186E0,0.000000000E0,9.728387736E0
5.577454510E-1,-1.381454349E0,9.632172585E0,4.788403399E-3,9.730734183E0
5.597454170E-1,-1.355118155E0,9.632172585E0,-2.154781483E-2,9.727052905E0
5.617454170E-1,-1.357512355E0,9.636960983E0,-2.873042040E-2,9.732146846E0
5.637454170E-1,-1.357512355E0,9.656114578E0,-3.351882473E-2,9.751128758E0
5.657449830E-1,-1.359906554E0,9.663297653E0,-4.070143029E-2,9.758602563E0
5.677449830E-1,-1.379060149E0,9.665691376E0,-1.915361360E-2,9.763593781E0
5.697449830E-1,-1.379060149E0,9.675268173E0,-2.394201607E-2,9.773085201E0
5.717449830E-1,-1.376665950E0,9.680056572E0,-3.112462163E-2,9.777508533E0
5.737449830E-1,-1.345541358E0,9.668086052E0,-3.351882473E-2,9.761326394E0
5.757441160E-1,-1.345541358E0,9.668086052E0,-3.351882473E-2,9.761326394E0
5.777432490E-1,-1.345541358E0,9.668086052E0,-3.351882473E-2,9.761326394E0
5.797432490E-1,-1.343147159E0,9.668086052E0,-2.873042040E-2,9.760981387E0
5.817432820E-1,-1.331176162E0,9.658509254E0,-1.197100803E-2,9.749819193E0
5.837433150E-1,-1.335964561E0,9.665691376E0,2.394201700E-3,9.757581504E0
5.857433480E-1,-1.333570361E0,9.668086052E0,1.915361360E-2,9.759644700E0
5.877433810E-1,-1.340752959E0,9.651326180E0,1.197100803E-2,9.744016565E0
5.897434140E-1,-1.343147159E0,9.648932457E0,7.182605099E-3,9.741970716E0
5.917434470E-1,-1.347935557E0,9.646537781E0,0.000000000E0,9.740257770E0
5.937434470E-1,-1.359906554E0,9.658509254E0,0.000000000E0,9.753776031E0
5.957442800E-1,-1.359906554E0,9.658509254E0,-4.788403399E-3,9.753777206E0
5.977451130E-1,-1.369483352E0,9.682451248E0,-1.197100803E-2,9.778828669E0
5.997450790E-1,-1.388636947E0,9.670479774E0,-7.182605099E-3,9.769674674E0
6.017450450E-1,-1.388636947E0,9.668086052E0,7.182605099E-3,9.767305261E0
6.037450110E-1,-1.403002143E0,9.665691376E0,2.394201607E-2,9.767014795E0
6.057447770E-1,-1.398213744E0,9.703998566E0,3.351882473E-2,9.804270159E0
6.077447430E-1,-1.386242747E0,9.708786964E0,3.591302410E-2,9.807318850E0
6.097447430E-1,-1.381454349E0,9.706393242E0,3.351882473E-2,9.804264857E0
6.117447760E-1,-1.395819545E0,9.699210167E0,4.548983276E-2,9.799237694E0
6.137448090E-1,-1.386242747E0,9.713575363E0,3.830722719E-2,9.812068219E0
6.157439750E-1,-1.386242747E0,9.713575363E0,3.830722719E-2,9.812068219E0
6.177431410E-1,-1.386242747E0,9.713575363E0,3.830722719E-2,9.812068219E0
6.197431740E-1,-1.376665950E0,9.706393242E0,4.309562966E-2,9.803628723E0
6.217432070E-1,-1.364694953E0,9.694421768E0,3.591302410E-2,9.790071270E0
6.237432400E-1,-1.350329757E0,9.682451248E0,4.070143029E-2,9.776242081E0
6.257437060E-1,-1.328781962E0,9.701604843E0,2.873042040E-2,9.792222601E0
6.277437060E-1,-1.316810966E0,9.699210167E0,1.436521020E-2,9.788200822E0
6.297437060E-1,-1.300051570E0,9.708786964E0,2.394201700E-3,9.795442008E0
6.317437060E-1,-1.266532660E0,9.696816444E0,2.394201700E-3,9.779179918E0
6.337437060E-1,-1.266532660E0,9.689633369E0,-4.788403399E-3,9.772058265E0
6.357445720E-1,-1.259350061E0,9.701604843E0,2.394201700E-3,9.783000810E0
6.377454380E-1,-1.278503656E0,9.696816444E0,1.915361360E-2,9.780755984E0
6.397454380E-1,-1.285686255E0,9.711181641E0,-7.182605099E-3,9.795922090E0
6.417454040E-1,-1.283292055E0,9.706393242E0,-9.576806799E-3,9.790863087E0
6.437453700E-1,-1.259350061E0,9.687239647E0,-7.182605099E-3,9.768757656E0
6.457453360E-1,-1.221042871E0,9.677662849E0,-1.675941236E-2,9.754403354E0
6.477453020E-1,-1.213860273E0,9.684844971E0,-3.112462163E-2,9.760668400E0
6.497460020E-1,-1.235408068E0,9.670479774E0,-2.873042040E-2,9.749114708E0
6.517459680E-1,-1.256955862E0,9.632172585E0,-2.394201607E-2,9.713869464E0
6.537459340E-1,-1.333570361E0,9.605836868E0,-1.675941236E-2,9.697978796E0
6.557450670E-1,-1.333570361E0,9.605836868E0,-1.675941236E-2,9.697978796E0
6.577442000E-1,-1.333570361E0,9.605836868E0,-1.675941236E-2,9.697978796E0
6.597442330E-1,-1.345541358E0,9.598653793E0,9.576806799E-3,9.692508855E0
6.617442660E-1,-1.376665950E0,9.598653793E0,2.394201607E-2,9.696903475E0
6.637442990E-1,-1.347935557E0,9.596260071E0,-7.182605099E-3,9.690468988E0
6.657445320E-1,-1.347935557E0,9.593865395E0,-2.394201700E-3,9.688095231E0
6.677445650E-1,-1.333570361E0,9.569923401E0,0.000000000E0,9.662393275E0
6.697445980E-1,-1.295263171E0,9.577106476E0,1.436521020E-2,9.664309675E0
6.717445980E-1,-1.278503656E0,9.605836868E0,2.873042040E-2,9.690588165E0
6.737445640E-1,-1.256955862E0,9.620202065E0,4.788403399E-3,9.701971384E0
6.757453970E-1,-1.266532660E0,9.627384186E0,-1.915361360E-2,9.710355199E0
6.777462300E-1,-1.295263171E0,9.653720856E0,1.675941236E-2,9.740241985E0
6.797461960E-1,-1.335964561E0,9.672874451E0,3.830722719E-2,9.764771830E0
6.817461620E-1,-1.369483352E0,9.689633369E0,1.915361360E-2,9.785951479E0
6.837461280E-1,-1.398213744E0,9.682451248E0,-3.351882473E-2,9.782943696E0
6.857460940E-1,-1.414973259E0,9.687239647E0,-3.830722719E-2,9.790108720E0
6.877460940E-1,-1.580173135E0,9.610625267E0,-7.422025502E-2,9.739947320E0
6.897461270E-1,-2.236184359E0,9.483732224E0,-2.011129409E-1,9.745878297E0
6.917461600E-1,-2.315192938E0,9.493309021E0,-1.412578970E-1,9.772563036E0
6.937461930E-1,-2.351106167E0,9.593865395E0,3.256114423E-1,9.883115715E0
6.957453590E-1,-2.351106167E0,9.593865395E0,3.256114423E-1,9.883115715E0
6.977445250E-1,-2.351106167E0,9.593865395E0,3.256114423E-1,9.883115715E0
6.997445580E-1,-2.260126352E0,9.624990463E0,3.926490843E-1,9.894583662E0
7.017445910E-1,-2.142810583E0,9.675268173E0,3.806780577E-1,9.917024110E0
7.037446240E-1,-2.037465572E0,9.713575363E0,2.801215947E-1,9.928911340E0
7.057446240E-1,-1.984793186E0,9.737517357E0,2.298433632E-1,9.940396181E0
7.077446240E-1,-1.956062794E0,9.766247749E0,1.556231081E-1,9.961425365E0
7.097438900E-1,-1.941697598E0,9.775824547E0,7.422025502E-2,9.967067963E0
7.117438900E-1,-1.905784607E0,9.787796021E0,4.070143029E-2,9.971691056E0
7.137438900E-1,-1.838746905E0,9.799766541E0,7.182605099E-3,9.970780612E0
7.157447560E-1,-1.762132406E0,9.773430824E0,4.788403399E-3,9.931016243E0
7.177456220E-1,-1.683123827E0,9.768642426E0,2.154781483E-2,9.912605357E0
7.197455880E-1,-1.582567334E0,9.725546837E0,5.506663769E-2,9.853619283E0
7.217455540E-1,-1.474828243E0,9.677662849E0,7.422025502E-2,9.789677483E0
7.237455200E-1,-1.331176162E0,9.651326180E0,6.943184882E-2,9.742943486E0
7.257454860E-1,-1.283292055E0,9.589076996E0,5.985504389E-2,9.674751612E0
7.277454520E-1,-1.211466074E0,9.555558205E0,7.182605099E-3,9.632050365E0
7.297454180E-1,-1.187524080E0,9.543587685E0,-1.436521020E-2,9.617197393E0
7.317453840E-1,-1.194706678E0,9.524434090E0,-4.548983276E-2,9.599179033E0
7.337453840E-1,-1.292868972E0,9.534010887E0,-9.097966552E-2,9.621702088E0
7.357445170E-1,-1.292868972E0,9.534010887E0,-9.097966552E-2,9.621702088E0
7.377436830E-1,-1.292868972E0,9.534010887E0,-9.097966552E-2,9.621702088E0
7.397437160E-1,-1.302445769E0,9.541193008E0,-9.097966552E-2,9.630109361E0
7.417437490E-1,-1.300051570E0,9.574711800E0,-8.379705995E-2,9.662932375E0
7.437437820E-1,-1.307234168E0,9.596260071E0,-6.224924326E-2,9.685088718E0
7.457438150E-1,-1.338358760E0,9.629778862E0,-3.591302410E-2,9.722403759E0
7.477438480E-1,-1.309628367E0,9.644144058E0,9.576806799E-3,9.732663191E0
7.497438480E-1,-1.309628367E0,9.670479774E0,2.633621916E-2,9.758790864E0
7.517438140E-1,-1.345541358E0,9.744700432E0,-4.788403399E-3,9.837158684E0
7.537437800E-1,-1.460463047E0,9.804554939E0,-3.591302410E-2,9.912796760E0
7.557446130E-1,-1.486799240E0,9.797372818E0,-3.112462163E-2,9.909594081E0
7.577454460E-1,-1.520318031E0,9.804554939E0,1.675941236E-2,9.921741044E0
7.597454120E-1,-1.503558636E0,9.814131737E0,2.873042040E-2,9.928680464E0
7.617453780E-1,-1.520318031E0,9.811738014E0,3.351882473E-2,9.928881774E0
7.637453440E-1,-1.546654344E0,9.806949615E0,3.351882473E-2,9.928218568E0
7.657450100E-1,-1.537077546E0,9.766247749E0,4.788403399E-3,9.886466781E0
7.677450430E-1,-1.553836942E0,9.754277229E0,-2.394201700E-3,9.877263753E0
7.697450760E-1,-1.561019540E0,9.727940559E0,1.675941236E-2,9.852405311E0
7.717451090E-1,-1.544260144E0,9.677662849E0,5.027823523E-2,9.800225789E0
7.737451420E-1,-1.472434044E0,9.574711800E0,5.985504389E-2,9.687453261E0
7.757443080E-1,-1.470039845E0,9.562741280E0,6.464344263E-2,9.675288972E0
7.777434410E-1,-1.470039845E0,9.562741280E0,6.464344263E-2,9.675288972E0
7.797434740E-1,-1.465251446E0,9.553164482E0,6.464344263E-2,9.665096595E0
7.817435070E-1,-1.453280449E0,9.545981407E0,6.703764945E-2,9.656204178E0
7.837435070E-1,-1.477222443E0,9.548376083E0,7.900865376E-2,9.662293431E0
7.857435070E-1,-1.505952835E0,9.524434090E0,9.097966552E-2,9.643184949E0
7.877435070E-1,-1.527500629E0,9.517251015E0,1.005564705E-1,9.639576581E0
7.897435070E-1,-1.532289028E0,9.529222488E0,1.221042871E-1,9.652403864E0
7.917435070E-1,-1.549048543E0,9.538799286E0,1.316810995E-1,9.664656389E0
7.937435070E-1,-1.561019540E0,9.550769806E0,1.077390760E-1,9.678098656E0
7.957443730E-1,-1.561019540E0,9.565135002E0,9.816227108E-2,9.692173412E0
7.977452060E-1,-1.563413739E0,9.584288597E0,6.464344263E-2,9.711180629E0
7.997451720E-1,-1.561019540E0,9.598653793E0,1.197100803E-2,9.724766319E0
8.017451380E-1,-1.561019540E0,9.636960983E0,-1.675941236E-2,9.762585717E0
8.037451040E-1,-1.549048543E0,9.703998566E0,-7.182604820E-2,9.827120562E0
8.057450700E-1,-1.558625340E0,9.754277229E0,-8.140286058E-2,9.878353286E0
8.077450360E-1,-1.563413739E0,9.766247749E0,-7.661445439E-2,9.890891133E0
8.097450020E-1,-1.563413739E0,9.785401344E0,-4.309562966E-2,9.909601365E0
8.117450020E-1,-1.553836942E0,9.792584419E0,4.788403399E-3,9.915096660E0
8.137450020E-1,-1.517923832E0,9.699210167E0,8.858546615E-2,9.817668665E0
8.157441680E-1,-1.517923832E0,9.699210167E0,8.858546615E-2,9.817668665E0
8.177433340E-1,-1.517923832E0,9.699210167E0,8.858546615E-2,9.817668665E0
8.197433670E-1,-1.515529633E0,9.687239647E0,8.379705995E-2,9.805430332E0
8.217434000E-1,-1.503558636E0,9.651326180E0,5.746084079E-2,9.767911104E0
8.237434330E-1,-1.482010841E0,9.639355659E0,-2.394201700E-3,9.752617054E0
8.257437990E-1,-1.458068848E0,9.632172585E0,-2.873042040E-2,9.741947387E0
8.277437990E-1,-1.462857246E0,9.605836868E0,-5.746084079E-2,9.716756404E0
8.297437990E-1,-1.458068848E0,9.617807388E0,-7.900865376E-2,9.728022723E0
8.317437650E-1,-1.436521053E0,9.620202065E0,-9.816227108E-2,9.727359165E0
8.337437310E-1,-1.438915253E0,9.641749382E0,-9.097966552E-2,9.748953049E0
8.357445640E-1,-1.438915253E0,9.641749382E0,-6.464344263E-2,9.748742843E0
8.377454300E-1,-1.443703651E0,9.639355659E0,-1.675941236E-2,9.746883535E0
8.397463630E-1,-1.443703651E0,9.648932457E0,-9.576806799E-3,9.756345090E0
8.417463290E-1,-1.436521053E0,9.665691376E0,-2.394201700E-3,9.771856949E0
8.437463290E-1,-1.381454349E0,9.672874451E0,0.000000000E0,9.771024320E0
8.457463620E-1,-1.386242747E0,9.668086052E0,0.000000000E0,9.766962520E0
8.477463950E-1,-1.407790542E0,9.646537781E0,-2.633621916E-2,9.748756791E0
8.497464280E-1,-1.441309452E0,9.651326180E0,-5.267243832E-2,9.758496008E0
8.517464610E-1,-1.443703651E0,9.651326180E0,-5.985504389E-2,9.758891324E0
8.537464940E-1,-1.448492050E0,9.646537781E0,-7.182604820E-2,9.754946405E0
8.557456600E-1,-1.455674648E0,9.646537781E0,-5.506663769E-2,9.755906527E0
8.577448260E-1,-1.455674648E0,9.636960983E0,-5.506663769E-2,9.746437196E0
8.597448590E-1,-1.455674648E0,9.636960983E0,-5.506663769E-2,9.746437196E0
8.617448590E-1,-1.465251446E0,9.644144058E0,-1.675941236E-2,9.754832510E0
8.637448590E-1,-1.482010841E0,9.629778862E0,2.633621916E-2,9.743186884E0
8.657448590E-1,-1.479616642E0,9.622595787E0,4.548983276E-2,9.735793980E0
8.677448590E-1,-1.482010841E0,9.603442192E0,5.746084079E-2,9.717291794E0
8.697448590E-1,-1.465251446E0,9.586683273E0,3.830722719E-2,9.698088751E0
8.717448590E-1,-1.455674648E0,9.591471672E0,2.873042040E-2,9.701347481E0
8.737448590E-1,-1.443703651E0,9.610625267E0,1.197100803E-2,9.718463951E0
8.757456920E-1,-1.460463047E0,9.620202065E0,-1.915361360E-2,9.730447417E0
8.777465250E-1,-1.472434044E0,9.624990463E0,-3.591302410E-2,9.737032052E0
8.797464910E-1,-1.474828243E0,9.644144058E0,-3.351882473E-2,9.756318797E0
8.817464570E-1,-1.479616642E0,9.641749382E0,-3.112462163E-2,9.754668897E0
8.837464230E-1,-1.479616642E0,9.644144058E0,-3.112462163E-2,9.757035860E0
8.857463890E-1,-1.455674648E0,9.668086052E0,-2.394201700E-3,9.777058981E0
8.877463550E-1,-1.441309452E0,9.677662849E0,2.154781483E-2,9.784426170E0
8.897463210E-1,-1.446097851E0,9.682451248E0,2.633621916E-2,9.789880222E0
8.917463210E-1,-1.436521053E0,9.701604843E0,1.436521020E-2,9.807391887E0
8.937463540E-1,-1.412579060E0,9.672874451E0,-2.394201607E-2,9.775502696E0
8.957455200E-1,-1.412579060E0,9.672874451E0,-2.394201607E-2,9.775502696E0
8.977446860E-1,-1.412579060E0,9.672874451E0,-2.394201607E-2,9.775502696E0
8.997437520E-1,-1.407790542E0,9.677662849E0,-2.873042040E-2,9.779563276E0
9.017437850E-1,-1.417367458E0,9.692028046E0,-4.070143029E-2,9.795202640E0
9.037438180E-1,-1.407790542E0,9.677662849E0,-3.830722719E-2,9.779596100E0
9.057438180E-1,-1.405396342E0,9.663297653E0,-3.591302410E-2,9.765026890E0
9.077431180E-1,-1.424550056E0,9.663297653E0,-2.633621916E-2,9.767771393E0
9.097430840E-1,-1.438915253E0,9.677662849E0,-2.873042040E-2,9.784092230E0
9.117430500E-1,-1.450886250E0,9.658509254E0,-2.633621916E-2,9.766911770E0
9.137430160E-1,-1.443703651E0,9.660902977E0,-1.915361360E-2,9.768198064E0
9.157438490E-1,-1.446097851E0,9.648932457E0,-2.154781483E-2,9.756718755E0
9.177446820E-1,-1.443703651E0,9.653720856E0,-1.915361360E-2,9.761094890E0
9.197446480E-1,-1.462857246E0,9.656114578E0,-9.576806799E-3,9.766298776E0
9.217446480E-1,-1.465251446E0,9.651326180E0,2.394201700E-3,9.761919102E0
9.237446810E-1,-1.484405041E0,9.639355659E0,-4.788403399E-3,9.752982046E0
9.257447140E-1,-1.496376038E0,9.624990463E0,-7.182605099E-3,9.740617755E0
9.277447470E-1,-1.503558636E0,9.641749382E0,-1.197100803E-2,9.758286890E0
9.297447800E-1,-1.529894829E0,9.641749382E0,-7.182605099E-3,9.762374758E0
9.317448130E-1,-1.541865945E0,9.644144058E0,-1.436521020E-2,9.766630512E0
9.337448460E-1,-1.534683347E0,9.627384186E0,0.000000000E0,9.748937339E0
9.357440120E-1,-1.539471745E0,9.627384186E0,0.000000000E0,9.749692278E0
9.377431780E-1,-1.539471745E0,9.622595787E0,-9.576806799E-3,9.744968684E0
9.397428110E-1,-1.539471745E0,9.620202065E0,-2.394201700E-3,9.742600615E0
9.417428110E-1,-1.532289028E0,9.620202065E0,2.394201700E-3,9.741468224E0
9.437428110E-1,-1.520318031E0,9.627384186E0,-9.576806799E-3,9.746690971E0
9.457428110E-1,-1.525106430E0,9.627384186E0,-4.788403399E-3,9.747435499E0
9.477428110E-1,-1.529894829E0,9.624990463E0,-7.182605099E-3,9.745823269E0
9.497428110E-1,-1.520318031E0,9.610625267E0,-7.182605099E-3,9.730135484E0
9.517428110E-1,-1.520318031E0,9.624990463E0,4.788403399E-3,9.744323027E0
9.537427770E-1,-1.537077546E0,9.624990463E0,-1.197100803E-2,9.746958095E0
9.557436100E-1,-1.534683347E0,9.644144058E0,-7.182605099E-3,9.765491241E0
9.577444430E-1,-1.510741234E0,9.648932457E0,-2.394201700E-3,9.766485671E0
9.597444090E-1,-1.489193439E0,9.658509254E0,0.000000000E0,9.772640284E0
9.617443750E-1,-1.465251446E0,9.668086052E0,1.675941236E-2,9.778503494E0
9.637443410E-1,-1.441309452E0,9.677662849E0,2.873042040E-2,9.784444624E0
9.657443070E-1,-1.434126854E0,9.680056572E0,3.112462163E-2,9.785764345E0
9.677449730E-1,-1.426944256E0,9.687239647E0,2.154781483E-2,9.791794840E0
9.697449730E-1,-1.438915253E0,9.687239647E0,-2.394201700E-3,9.793523105E0
9.717446060E-1,-1.441309452E0,9.665691376E0,-1.436521020E-2,9.772572285E0
9.737446390E-1,-1.419761658E0,9.677662849E0,0.000000000E0,9.781251525E0
9.757438050E-1,-1.419761658E0,9.682451248E0,2.394201700E-3,9.785989529E0
9.777429710E-1,-1.419761658E0,9.682451248E0,2.394201700E-3,9.785989529E0
9.797430040E-1,-1.419761658E0,9.682451248E0,2.394201700E-3,9.785989529E0
9.817430370E-1,-1.434126854E0,9.646537781E0,1.675941236E-2,9.752573602E0
9.837430370E-1,-1.417367458E0,9.646537781E0,1.197100803E-2,9.750116152E0
9.857430370E-1,-1.419761658E0,9.653720856E0,7.182605099E-3,9.757566352E0
9.877430030E-1,-1.431732655E0,9.644144058E0,0.000000000E0,9.749839640E0
9.897429690E-1,-1.424550056E0,9.646537781E0,1.197100803E-2,9.751162870E0
9.917429350E-1,-1.417367458E0,9.656114578E0,4.788403399E-3,9.759585144E0
9.937429010E-1,-1.414973259E0,9.675268173E0,-9.576806799E-3,9.778192842E0
9.957437340E-1,-1.419761658E0,9.677662849E0,-1.915361360E-2,9.781270278E0
9.977445670E-1,-1.412579060E0,9.687239647E0,-4.788403399E-3,9.789689193E0
9.997449330E-1,-1.419761658E0,9.692028046E0,-1.915361360E-2,9.795483534E0
1.001744966E0,-1.426944256E0,9.675268173E0,-1.197100803E-2,9.779934940E0
1.003744999E0,-1.426944256E0,9.682451248E0,-1.436521020E-2,9.787044418E0
1.005745032E0,-1.434126854E0,9.687239647E0,-1.436521020E-2,9.792830958E0
1.007745065E0,-1.434126854E0,9.670479774E0,-1.915361360E-2,9.776260316E0
1.009745098E0,-1.422155857E0,9.653720856E0,-2.633621916E-2,9.757947901E0
1.011745131E0,-1.417367458E0,9.651326180E0,-1.675941236E-2,9.754860758E0
1.013745164E0,-1.477222443E0,9.648932457E0,4.788403399E-3,9.761357827E0
1.015744330E0,-1.477222443E0,9.648932457E0,4.788403399E-3,9.761357827E0
1.017743463E0,-1.477222443E0,9.648932457E0,4.788403399E-3,9.761357827E0
1.019743463E0,-1.477222443E0,9.639355659E0,9.576806799E-3,9.751894964E0
1.021743463E0,-1.491587639E0,9.620202065E0,1.436521020E-2,9.735159362E0
1.023743463E0,-1.503558636E0,9.622595787E0,1.436521020E-2,9.739365719E0
1.025743463E0,-1.501164436E0,9.624990463E0,2.154781483E-2,9.741375693E0
1.027743463E0,-1.503558636E0,9.632172585E0,3.112462163E-2,9.748866909E0
1.029743463E0,-1.515529633E0,9.627384186E0,3.112462163E-2,9.745990205E0
1.031743829E0,-1.515529633E0,9.624990463E0,2.873042040E-2,9.743618266E0
1.033743795E0,-1.544260144E0,9.615413666E0,1.915361360E-2,9.738649096E0
1.035744628E0,-1.553836942E0,9.615413666E0,1.675941236E-2,9.740167867E0
1.037745461E0,-1.558625340E0,9.627384186E0,1.197100803E-2,9.752742308E0
1.039745427E0,-1.565807939E0,9.644144058E0,7.182605099E-3,9.770430938E0
1.041745393E0,-1.575384736E0,9.641749382E0,4.788403399E-3,9.769605475E0
1.043745359E0,-1.575384736E0,9.641749382E0,7.182605099E-3,9.769606942E0
1.045745325E0,-1.563413739E0,9.620202065E0,-1.197100803E-2,9.746419527E0
1.047745325E0,-1.515529633E0,9.553164482E0,-1.173158810E-1,9.673341962E0
1.049745358E0,-1.534683347E0,9.529222488E0,-1.484405100E-1,9.653153308E0
1.051745391E0,-1.671152830E0,9.572318077E0,-1.197100878E-1,9.717836984E0
1.053745424E0,-1.726219416E0,9.646537781E0,2.106897533E-1,9.802036258E0
1.055744590E0,-1.726219416E0,9.646537781E0,2.106897533E-1,9.802036258E0
1.057743756E0,-1.726219416E0,9.646537781E0,2.106897533E-1,9.802036258E0
1.059743789E0,-1.728613615E0,9.617807388E0,1.460463107E-1,9.773006370E0
1.061743789E0,-1.790862918E0,9.591471672E0,9.097966552E-2,9.757653208E0
1.063743789E0,-2.013523579E0,9.555558205E0,4.237737060E-1,9.774587150E0
1.065743755E0,-2.475604534E0,9.550769806E0,5.602431893E-1,9.882291947E0
1.067743721E0,-2.343923569E0,9.325715065E0,3.734954596E-1,9.623016057E0
1.069743687E0,-2.360682964E0,9.244312286E0,3.734954596E-1,9.548279037E0
1.071743653E0,-2.492363930E0,9.196428299E0,2.202665508E-1,9.530723413E0
1.076251460E0,-2.485181332E0,9.201216698E0,1.436520964E-1,9.532006656E0
1.078252293E0,-2.422932148E0,9.304166794E0,-2.370259613E-1,9.617395761E0
1.080253159E0,-1.764526606E0,9.337685585E0,-4.788403511E-1,9.514999438E0
1.082253159E0,-1.134851575E0,9.610625267E0,-2.202665508E-1,9.679903072E0
1.084253192E0,-9.672574997E-1,9.744700432E0,-1.963245422E-1,9.794555472E0
1.086253225E0,-4.285621047E-1,9.720758438E0,-1.939303428E-1,9.732133326E0
1.088253258E0,1.580173075E-1,9.641749382E0,-1.532289088E-1,9.644261491E0
1.090253291E0,4.094084799E-1,9.636960983E0,-2.035071403E-1,9.647800135E0
1.092253324E0,8.044517636E-1,9.641749382E0,-4.237737060E-1,9.684526728E0
1.094253357E0,9.672574997E-1,9.646537781E0,-6.272808313E-1,9.715181906E0
1.096253390E0,2.226607651E-1,9.931447983E0,-4.357447028E-1,9.943495879E0
1.098252523E0,2.226607651E-1,9.931447983E0,-4.357447028E-1,9.943495879E0
1.100251656E0,2.226607651E-1,9.931447983E0,-4.357447028E-1,9.943495879E0
1.102251622E0,-6.943184882E-2,1.002482224E1,-2.896983922E-1,1.002924757E1
1.104251622E0,-3.519476354E-1,1.010383034E1,-1.675941199E-1,1.011134721E1
1.106251622E0,-9.050082564E-1,1.012059021E1,3.112462163E-2,1.016102135E1
1.108251622E0,-1.491587639E0,1.012059021E1,2.394201756E-1,1.023271723E1
1.110251622E0,-1.874659896E0,1.011819553E1,3.112462163E-1,1.029510101E1
1.112251588E0,-2.401384354E0,9.996091843E0,2.849099934E-1,1.028443837E1
1.114251554E0,-2.683900118E0,9.890746117E0,2.035071403E-1,1.025044359E1
1.116251520E0,-2.753331900E0,9.878775597E0,2.059013397E-1,1.025736025E1
1.118252353E0,-2.743755102E0,9.838073730E0,1.484405100E-1,1.021459355E1
1.120253186E0,-2.559401512E0,9.809343338E0,1.340752989E-1,1.013862560E1
1.122253152E0,-2.434903145E0,9.783007622E0,1.460463107E-1,1.008252553E1
1.124253118E0,-2.233790159E0,9.747094154E0,1.819593310E-1,1.000143850E1
1.126253084E0,-2.068590164E0,9.720758438E0,1.843535304E-1,9.940130588E0
1.128253084E0,-2.006340981E0,9.684844971E0,1.747767180E-1,9.892025735E0
1.130253117E0,-1.889025092E0,9.560346603E0,1.987187415E-1,9.747211505E0
1.132253150E0,-1.766920805E0,9.354445457E0,2.106897533E-1,9.522187203E0
1.134253183E0,-1.515529633E0,9.222764015E0,3.591302410E-2,9.346523198E0
1.136253216E0,-8.164227605E-1,9.091083527E0,-3.615244627E-1,9.134825983E0
1.138252382E0,-8.164227605E-1,9.091083527E0,-3.615244627E-1,9.134825983E0
1.140251548E0,-8.164227605E-1,9.091083527E0,-3.615244627E-1,9.134825983E0
1.142251581E0,-6.631938815E-1,9.036016464E0,-4.405331016E-1,9.071024698E0
1.144251581E0,-3.447650373E-1,8.988132477E0,-4.740519226E-1,9.007225632E0
1.146251547E0,-2.035071403E-1,9.182063103E0,-3.495534360E-1,9.190967609E0
1.148251513E0,-2.705447972E-1,9.306561470E0,-2.873041928E-1,9.314924830E0
1.150251479E0,-6.320692301E-1,9.574711800E0,-1.077390760E-1,9.596156797E0
1.152251445E0,-1.118092179E0,9.823708534E0,1.244984865E-1,9.887915825E0
1.154251411E0,-1.369483352E0,9.905111313E0,2.035071403E-1,1.000140640E1
1.156251377E0,-2.094926596E0,1.005594635E1,2.106897533E-1,1.027400431E1
1.158252243E0,-2.255337954E0,1.010383034E1,1.795651317E-1,1.035404174E1
1.160253109E0,-2.375048161E0,1.013495541E1,1.316810995E-1,1.041035613E1
1.162253175E0,-2.466027737E0,1.014692593E1,2.873042040E-2,1.044232848E1
1.164253208E0,-2.353500366E0,1.004876423E1,-7.900865376E-2,1.032099166E1
1.166253241E0,-2.190694571E0,9.938630104E0,-4.788403213E-2,1.017731811E1
1.168253274E0,-2.068590164E0,9.878775597E0,4.788403399E-3,1.009303203E1
1.170253307E0,-1.817199111E0,9.809343338E0,2.082955539E-1,9.978417528E0
1.172253340E0,-1.563413739E0,9.720758438E0,1.963245422E-1,9.847636796E0
1.174253373E0,-1.412579060E0,9.668086052E0,1.580173075E-1,9.772012944E0
1.176253373E0,-1.431732655E0,9.636960983E0,5.506663769E-2,9.742890111E0
1.178252506E0,-1.431732655E0,9.636960983E0,5.506663769E-2,9.742890111E0
1.180251639E0,-1.431732655E0,9.636960983E0,5.506663769E-2,9.742890111E0
1.182251639E0,-1.503558636E0,9.629778862E0,3.112462163E-2,9.746501847E0
1.184251639E0,-1.733402014E0,9.593865395E0,-8.379705995E-2,9.749561923E0
1.186251639E0,-1.977610588E0,9.557952881E0,-1.221042871E-1,9.761163679E0
1.188251639E0,-2.111685991E0,9.557952881E0,-6.703764945E-2,9.788675858E0
1.190251605E0,-2.284068346E0,9.574711800E0,3.112462163E-2,9.843426385E0
1.192251571E0,-2.274491549E0,9.560346603E0,1.340752989E-1,9.828098248E0
1.194251537E0,-2.078166962E0,9.596260071E0,1.915361285E-1,9.820573881E0
1.196251503E0,-2.087743998E0,9.629778862E0,9.816227108E-2,9.853981518E0
1.198252336E0,-2.154781580E0,9.639355659E0,9.097966552E-2,9.877678801E0
1.200253169E0,-2.090138197E0,9.658509254E0,8.140286058E-2,9.882413932E0
1.202253135E0,-2.056619167E0,9.672874451E0,2.873042040E-2,9.889135856E0
1.204253101E0,-1.893813491E0,9.627384186E0,1.101332754E-1,9.812501472E0
1.206253101E0,-1.759738207E0,9.651326180E0,9.576806426E-2,9.810909596E0
1.208253134E0,-1.628057122E0,9.727940559E0,8.619125932E-2,9.863611228E0
1.210253167E0,-1.599326730E0,9.756670952E0,7.661445439E-2,9.887180782E0
1.212253200E0,-1.551442742E0,9.785401344E0,7.661445439E-2,9.907922276E0
1.214253766E0,-1.604115129E0,9.787796021E0,6.224924326E-2,9.918569012E0
1.216253799E0,-1.484405041E0,9.687239647E0,4.548983276E-2,9.800415278E0
1.218252965E0,-1.484405041E0,9.687239647E0,4.548983276E-2,9.800415278E0
1.220252131E0,-1.484405041E0,9.687239647E0,4.548983276E-2,9.800415278E0
1.222252131E0,-1.486799240E0,9.629778862E0,6.224924326E-2,9.744079632E0
1.224252097E0,-1.374271750E0,9.615413666E0,5.506663769E-2,9.713281379E0
1.226252063E0,-1.240196466E0,9.644144058E0,7.182605099E-3,9.723561769E0
1.228252029E0,-1.312022567E0,9.656114578E0,-3.351882473E-2,9.744899973E0
1.230251995E0,-1.302445769E0,9.694421768E0,-4.788403213E-2,9.781639499E0
1.232251961E0,-1.343147159E0,9.715970039E0,-7.422025502E-2,9.808650608E0
1.234251927E0,-1.338358760E0,9.720758438E0,-1.125274822E-1,9.813104056E0
1.236251927E0,-1.338358760E0,9.711181641E0,-1.532289088E-1,9.804169120E0
1.238252793E0,-1.316810966E0,9.713575363E0,-1.268926859E-1,9.803246361E0
1.240253693E0,-1.278503656E0,9.723152161E0,-6.224924326E-2,9.807045147E0
1.242253526E0,-1.199495077E0,9.744700432E0,-5.506663769E-2,9.818401463E0
1.244253559E0,-1.192312479E0,9.718363762E0,-3.591302410E-2,9.791296799E0
1.246253592E0,-1.161187768E0,9.692028046E0,-4.788403399E-3,9.761341486E0
1.248253625E0,-1.106121182E0,9.668086052E0,1.675941236E-2,9.731170169E0
1.250253658E0,-1.094150186E0,9.641749382E0,4.788403399E-3,9.703634304E0
1.252253691E0,-1.072602391E0,9.651326180E0,1.292868853E-1,9.711605841E0
1.254253691E0,-1.149216771E0,9.634567261E0,1.412578970E-1,9.703892996E0
1.256253691E0,-1.221042871E0,9.598653793E0,2.394201607E-2,9.676036046E0
1.258252824E0,-1.221042871E0,9.598653793E0,2.394201607E-2,9.676036046E0
1.260251957E0,-1.256955862E0,9.598653793E0,2.394201700E-3,9.680604238E0
1.262251957E0,-1.292868972E0,9.589076996E0,2.394201700E-3,9.675841749E0
1.264251957E0,-1.331176162E0,9.668086052E0,1.675941236E-2,9.759313437E0
1.266251957E0,-1.376665950E0,9.706393242E0,6.703764945E-2,9.803763203E0
1.268251923E0,-1.989581585E0,9.950601578E0,5.602431893E-1,1.016301034E1
1.270251889E0,-2.602497339E0,1.012298393E1,8.092401624E-1,1.048344723E1
1.272251855E0,-2.683900118E0,1.017326260E1,2.777273953E-1,1.052500471E1
1.274251288E0,-1.833958507E0,9.790189743E0,5.985504389E-2,9.960662711E0
1.276251254E0,-1.441309452E0,9.562741280E0,-5.267243832E-2,9.670892829E0
1.278252087E0,-1.309628367E0,9.452607155E0,-1.149216816E-1,9.543590282E0
1.280252920E0,-1.424550056E0,9.371204376E0,6.224924326E-2,9.479065845E0
1.282252886E0,-1.458068848E0,9.368810654E0,1.891419291E-1,9.483477869E0
1.284252886E0,-1.388636947E0,9.426271439E0,3.615244627E-1,9.534862649E0
1.286252919E0,-1.546654344E0,9.593865395E0,1.795651317E-1,9.719394863E0
1.288252952E0,-1.620874524E0,9.629778862E0,7.661445439E-2,9.765538640E0
1.290252985E0,-1.654393315E0,9.579500198E0,-2.873042040E-2,9.721351075E0
1.292253018E0,-1.711854219E0,9.613018990E0,-1.125274822E-1,9.764898432E0
1.294253051E0,-1.668758631E0,9.598653793E0,-2.035071403E-1,9.744758856E0
1.296253084E0,-1.460463047E0,9.665691376E0,-1.221042871E-1,9.776167528E0
1.298252250E0,-1.460463047E0,9.665691376E0,-1.221042871E-1,9.776167528E0
1.300251383E0,-1.460463047E0,9.665691376E0,-1.221042871E-1,9.776167528E0
1.302251549E0,-1.405396342E0,9.660902977E0,-9.816227108E-2,9.763084607E0
1.304251515E0,-1.268926859E0,9.636960983E0,-7.900865376E-2,9.720464739E0
1.306251481E0,-1.209071875E0,9.624990463E0,-1.005564705E-1,9.701154973E0
1.308251447E0,-1.197100878E0,9.641749382E0,-7.900865376E-2,9.716101277E0
1.310251413E0,-1.199495077E0,9.668086052E0,-7.182604820E-2,9.742475832E0
1.312251379E0,-1.247379065E0,9.725546837E0,-1.053448766E-1,9.805779589E0
1.314251379E0,-1.266532660E0,9.759065628E0,-1.316810995E-1,9.841788802E0
1.316251379E0,-1.331176162E0,9.811738014E0,-9.097966552E-2,9.902045755E0
1.318252279E0,-1.357512355E0,9.816526413E0,-5.027823523E-2,9.910073588E0
1.320253179E0,-1.304839969E0,9.744700432E0,-3.112462163E-2,9.831722260E0
1.322253212E0,-1.312022567E0,9.622595787E0,3.830722719E-2,9.711705326E0
1.324253245E0,-1.333570361E0,9.605836868E0,4.548983276E-2,9.698071003E0
1.326253278E0,-1.383848548E0,9.663297653E0,5.027823523E-2,9.762012407E0
1.328253544E0,-1.441309452E0,9.675268173E0,2.633621916E-2,9.782069349E0
1.330253577E0,-1.429338455E0,9.699210167E0,1.436521020E-2,9.803973309E0
1.332253610E0,-1.707065821E0,9.967360497E0,1.364694983E-1,1.011340560E1
1.334253610E0,-1.800439715E0,9.881169319E0,8.140286058E-2,1.004418821E1
1.336253610E0,-1.800439715E0,1.005115795E1,2.633621916E-2,1.021117295E1
1.338252743E0,-1.800439715E0,1.005115795E1,2.633621916E-2,1.021117295E1
1.340251876E0,-1.800439715E0,1.005115795E1,2.633621916E-2,1.021117295E1
1.342251876E0,-1.776497602E0,1.007988834E1,3.112462163E-2,1.023528512E1
1.344251876E0,-1.826775908E0,1.003200436E1,3.351882473E-2,1.019702629E1
1.346251842E0,-1.812410712E0,9.955389977E0,1.197100803E-2,1.011902987E1
1.348251808E0,-1.642422318E0,9.780612946E0,-3.830722719E-2,9.917631174E0
1.350251774E0,-1.570596337E0,9.715970039E0,7.182605099E-3,9.842098265E0
1.352251740E0,-1.508347034E0,9.632172585E0,1.197100803E-2,9.749564235E0
1.354251706E0,-1.335964561E0,9.438241959E0,5.985504389E-2,9.532512534E0
1.356251672E0,-1.352723956E0,9.313743591E0,2.250549644E-1,9.414155911E0
1.358252505E0,-1.388636947E0,9.270648003E0,2.633621991E-1,9.377770876E0
1.360253338E0,-1.467645645E0,9.182063103E0,1.221042871E-1,9.299418047E0
1.362253338E0,-1.649604917E0,9.182063103E0,-4.548983276E-2,9.329177270E0
1.364253371E0,-1.745373011E0,9.246706009E0,-1.460463107E-1,9.411122594E0
1.366253404E0,-1.673547029E0,9.217975616E0,-1.723825186E-1,9.370248121E0
1.368253437E0,-1.640028119E0,9.337685585E0,1.675941236E-2,9.480630000E0
1.370253470E0,-1.742978811E0,9.431059837E0,8.140286058E-2,9.591115223E0
1.372253503E0,-1.695094824E0,9.450213432E0,3.830722719E-2,9.601111801E0
1.374253536E0,-1.522712231E0,9.431059837E0,1.915361360E-2,9.553214593E0
1.376253569E0,-1.170764685E0,9.246706009E0,-1.604115069E-1,9.321909344E0
1.378252702E0,-1.158793569E0,9.287407875E0,-1.436520964E-1,9.360522608E0
1.380251802E0,-1.158793569E0,9.287407875E0,-1.436520964E-1,9.360522608E0
1.382251768E0,-1.165976286E0,9.323320389E0,-1.005564705E-1,9.396484203E0
1.384251734E0,-1.182735682E0,9.352050781E0,-4.070143029E-2,9.426631112E0
1.386251700E0,-1.278503656E0,9.495702744E0,2.873042040E-2,9.581428267E0
1.388251433E0,-1.462857246E0,9.601048470E0,2.633621916E-2,9.711888418E0
1.390251399E0,-1.527500629E0,9.584288597E0,-1.675941236E-2,9.705262849E0
1.392251365E0,-1.599326730E0,9.624990463E0,-7.661445439E-2,9.757261767E0
1.394251365E0,-1.714248419E0,9.797372818E0,1.436521020E-2,9.946223813E0
1.396251365E0,-1.711854219E0,9.862015724E0,2.633621916E-2,1.000952010E1
1.398252231E0,-1.695094824E0,9.878775597E0,9.576806799E-3,1.002315546E1
1.400253097E0,-1.671152830E0,9.852438927E0,-2.154781483E-2,9.993186123E0
1.402253097E0,-1.635239720E0,9.905111313E0,5.746084079E-2,1.003934962E1
1.404253097E0,-1.599326730E0,9.897929192E0,9.576806426E-2,1.002676517E1
1.406253097E0,-1.484405041E0,9.873987198E0,1.125274822E-1,9.985576796E0
1.408253097E0,-1.426944256E0,9.806949615E0,1.077390760E-1,9.910804124E0
1.410253097E0,-1.395819545E0,9.754277229E0,7.182604820E-2,9.853902549E0
1.412253130E0,-1.328781962E0,9.670479774E0,4.309562966E-2,9.761439331E0
1.414253163E0,-1.302445769E0,9.651326180E0,9.097966552E-2,9.739237101E0
1.416253196E0,-1.256955862E0,9.536404610E0,2.394201607E-2,9.618914915E0
1.418252362E0,-1.256955862E0,9.536404610E0,2.394201607E-2,9.618914915E0
1.420251528E0,-1.256955862E0,9.536404610E0,2.394201607E-2,9.618914915E0
1.422251561E0,-1.271321058E0,9.548376083E0,2.154781483E-2,9.632663566E0
1.424251561E0,-1.268926859E0,9.565135002E0,4.548983276E-2,9.649044114E0
1.426251527E0,-1.247379065E0,9.577106476E0,9.337386489E-2,9.658449237E0
1.428251493E0,-1.254561663E0,9.572318077E0,1.029506698E-1,9.654729265E0
1.430251459E0,-1.247379065E0,9.581894875E0,7.900865376E-2,9.663069196E0
1.432251425E0,-1.235408068E0,9.581894875E0,2.633621916E-2,9.661244023E0
1.434251391E0,-1.218648672E0,9.598653793E0,-1.436521020E-2,9.675715250E0
1.436251357E0,-1.204283476E0,9.603442192E0,-7.182605099E-3,9.678659629E0
1.438252190E0,-1.180341482E0,9.620202065E0,2.154781483E-2,9.692365969E0
1.440253056E0,-1.173158884E0,9.629778862E0,3.591302410E-2,9.701042853E0
1.442253089E0,-1.170764685E0,9.644144058E0,6.224924326E-2,9.715146912E0
1.444253122E0,-1.199495077E0,9.680056572E0,9.097966552E-2,9.754514902E0
1.446253155E0,-1.216254473E0,9.658509254E0,4.788403213E-2,9.734904665E0
1.448253188E0,-1.237802267E0,9.668086052E0,3.830722719E-2,9.747076988E0
1.450253221E0,-1.292868972E0,9.706393242E0,5.506663769E-2,9.792273091E0
1.452253254E0,-1.338358760E0,9.692028046E0,5.985504389E-2,9.784180826E0
1.454253287E0,-1.345541358E0,9.682451248E0,5.267243832E-2,9.775639013E0
1.456253320E0,-1.493981838E0,9.737517357E0,4.070143029E-2,9.851542144E0
1.458252453E0,-1.522712231E0,9.737517357E0,4.070143029E-2,9.855940007E0
1.460251553E0,-1.522712231E0,9.720758438E0,1.675941236E-2,9.839312884E0
1.462251553E0,-1.522712231E0,9.720758438E0,1.675941236E-2,9.839312884E0
1.464251553E0,-1.565807939E0,9.670479774E0,1.675941236E-2,9.796438866E0
1.466251553E0,-1.553836942E0,9.610625267E0,3.830722719E-2,9.735501770E0
1.468251553E0,-1.544260144E0,9.598653793E0,3.112462163E-2,9.722132625E0
1.470251553E0,-1.482010841E0,9.574711800E0,-9.576806799E-3,9.688733348E0
1.472251519E0,-1.364694953E0,9.538799286E0,-4.070143029E-2,9.636012699E0
1.474251485E0,-1.345541358E0,9.541193008E0,-4.309562966E-2,9.635699394E0
1.476251051E0,-1.357512355E0,9.574711800E0,-8.140286058E-2,9.670810321E0
1.478251884E0,-1.398213744E0,9.617807388E0,-5.267243832E-2,9.719053196E0
1.480252717E0,-1.436521053E0,9.644144058E0,-1.436521020E-2,9.750554534E0
1.482252683E0,-1.503558636E0,9.684844971E0,7.182605099E-3,9.800865384E0
1.484252649E0,-1.594538331E0,9.718363762E0,4.788403399E-3,9.848307958E0
1.486252649E0,-1.709460020E0,9.749488831E0,-3.112462163E-2,9.898270291E0
1.488252649E0,-1.728613615E0,9.751882553E0,-5.267243832E-2,9.904044262E0
1.490252682E0,-1.675941229E0,9.754277229E0,-3.112462163E-2,9.897255782E0
1.492252715E0,-1.659181833E0,9.742305756E0,-1.197100803E-2,9.882588178E0
1.494251848E0,-1.637633920E0,9.723152161E0,-2.873042040E-2,9.860139869E0
1.496251881E0,-1.410184860E0,9.706393242E0,-7.182605099E-3,9.808299684E0
1.498251047E0,-1.410184860E0,9.706393242E0,-7.182605099E-3,9.808299684E0
1.500250180E0,-1.410184860E0,9.706393242E0,-7.182605099E-3,9.808299684E0
1.502250180E0,-1.446097851E0,9.715970039E0,-7.182605099E-3,9.822999765E0
1.504250146E0,-1.508347034E0,9.720758438E0,-2.633621916E-2,9.837120970E0
1.506250112E0,-1.549048543E0,9.703998566E0,-2.873042040E-2,9.826900070E0
1.508250078E0,-1.604115129E0,9.699210167E0,-3.112462163E-2,9.831013780E0
1.510250044E0,-1.599326730E0,9.689633369E0,-2.873042040E-2,9.820777274E0
1.512250010E0,-1.594538331E0,9.658509254E0,-7.182605099E-3,9.789249465E0
1.514249976E0,-1.568202138E0,9.548376083E0,5.267243832E-2,9.676441400E0
1.516249942E0,-1.692700624E0,9.567529678E0,2.873042040E-2,9.716155875E0
1.518250808E0,-1.769315004E0,9.596260071E0,-2.873042040E-2,9.758048389E0
1.520251741E0,-1.678335428E0,9.634567261E0,-1.197100878E-1,9.780389901E0
1.522251774E0,-1.608903527E0,9.663297653E0,-6.943184882E-2,9.796566382E0
1.524251807E0,-1.608903527E0,9.672874451E0,-6.703764945E-2,9.805996367E0
1.526251840E0,-1.517923832E0,9.653720856E0,-6.224924326E-2,9.772527518E0
1.528251873E0,-1.431732655E0,9.613018990E0,-2.873042040E-2,9.719095530E0
1.530251906E0,-1.328781962E0,9.596260071E0,-1.053448766E-1,9.688393386E0
1.532251939E0,-1.268926859E0,9.560346603E0,-6.943184882E-2,9.644440022E0
1.534252239E0,-1.101332784E0,9.505280495E0,-7.182605099E-3,9.568873642E0
1.536252639E0,-1.060631394E0,9.469367027E0,-7.661445439E-2,9.528888740E0
1.538251772E0,-1.194706678E0,9.545981407E0,-1.125274822E-1,9.621109474E0
1.540250905E0,-1.194706678E0,9.545981407E0,-1.125274822E-1,9.621109474E0
1.542250905E0,-1.331176162E0,9.627384186E0,-1.556231081E-1,9.720225038E0
1.544250905E0,-1.498770237E0,9.718363762E0,-1.532289088E-1,9.834448918E0
1.546250905E0,-2.367865562E0,9.933841705E0,1.436520964E-1,1.021315986E1
1.548250905E0,-2.827552319E0,1.008228302E1,2.226607651E-1,1.047363647E1
1.550250871E0,-2.875436306E0,1.010861874E1,2.753331959E-1,1.051323523E1
1.552250837E0,-2.602497339E0,9.993697166E0,2.753331959E-1,1.033067199E1
1.554251703E0,-1.972822189E0,9.739912033E0,1.771709323E-1,9.939280826E0
1.556251669E0,-1.182735682E0,9.632172585E0,6.943184882E-2,9.704763427E0
1.558252502E0,-9.864110947E-1,9.613018990E0,5.746084079E-2,9.663666110E0
1.560253368E0,-8.427590132E-1,9.598653793E0,9.816227108E-2,9.636079765E0
1.562253334E0,-8.475474119E-1,9.526827812E0,1.340752989E-1,9.565393926E0
1.564253334E0,-7.541735172E-1,9.488520622E0,-1.915361360E-2,9.518464590E0
1.566253334E0,-8.212111592E-1,9.538799286E0,-2.106897533E-1,9.576401712E0
1.568253367E0,-7.637503147E-1,9.565135002E0,-1.891419291E-1,9.597442202E0
1.570253400E0,-9.289502501E-1,9.610625267E0,-5.746084079E-2,9.655587416E0
1.572253433E0,-1.254561663E0,9.632172585E0,7.182605099E-3,9.713533098E0
1.574253466E0,-1.395819545E0,9.739912033E0,1.867477298E-1,9.841192678E0
1.576253499E0,-1.218648672E0,9.646537781E0,-2.226607651E-1,9.725758251E0
1.578252665E0,-1.218648672E0,9.646537781E0,-2.226607651E-1,9.725758251E0
1.580251798E0,-1.218648672E0,9.646537781E0,-2.226607651E-1,9.725758251E0
1.582251798E0,-1.218648672E0,9.646537781E0,-2.226607651E-1,9.725758251E0
1.584251764E0,-8.092401624E-1,9.548376083E0,-1.364694983E-1,9.583578632E0
1.586251730E0,-8.930372596E-1,9.641749382E0,-5.027823523E-2,9.683149002E0
1.588251696E0,-1.108515382E0,9.646537781E0,-2.633621916E-2,9.710056184E0
1.590251662E0,-1.230619669E0,9.644144058E0,1.029506698E-1,9.722887340E0
1.592251628E0,-1.211466074E0,9.711181641E0,2.346317619E-1,9.789267131E0
1.594251328E0,-1.340752959E0,9.751882553E0,1.747767180E-1,9.845170325E0
1.596251328E0,-1.537077546E0,9.766247749E0,1.580173075E-1,9.887728352E0
1.598252228E0,-1.721431017E0,9.768642426E0,1.125274822E-1,9.919796471E0
1.600253128E0,-1.647210717E0,9.771036148E0,2.873042040E-2,9.908949288E0
1.602253161E0,-1.558625340E0,9.766247749E0,-2.394201700E-3,9.889838916E0
1.604253194E0,-1.544260144E0,9.720758438E0,2.394201700E-3,9.842656640E0
1.606253227E0,-1.539471745E0,9.658509254E0,-1.197100803E-2,9.780435449E0
1.608253260E0,-1.539471745E0,9.641749382E0,-9.576806799E-3,9.763882226E0
1.610253293E0,-1.611297727E0,9.627384186E0,2.633621916E-2,9.761326765E0
1.612253326E0,-1.735796213E0,9.629778862E0,1.580173075E-1,9.786245393E0
1.614253326E0,-1.781286120E0,9.624990463E0,1.580173075E-1,9.789708429E0
1.616253326E0,-1.936909199E0,9.651326180E0,8.858546615E-2,9.844163837E0
1.618252459E0,-1.936909199E0,9.651326180E0,8.858546615E-2,9.844163837E0
1.620251592E0,-1.936909199E0,9.651326180E0,8.858546615E-2,9.844163837E0
1.622251592E0,-1.877054095E0,9.636960983E0,1.005564705E-1,9.818577324E0
1.624251592E0,-1.805228114E0,9.632172585E0,1.292868853E-1,9.800730194E0
1.626251592E0,-1.742978811E0,9.641749382E0,7.661445439E-2,9.798325166E0
1.628251558E0,-1.754949808E0,9.656114578E0,4.548983276E-2,9.814400996E0
1.630251524E0,-1.800439715E0,9.663297653E0,1.915361360E-2,9.829611974E0
1.632251490E0,-1.802833915E0,9.651326180E0,1.197100803E-2,9.818271256E0
1.634251456E0,-1.817199111E0,9.641749382E0,3.351882473E-2,9.811557841E0
1.636251022E0,-1.841141105E0,9.646537781E0,1.628057212E-1,9.822015955E0
1.638251855E0,-1.841141105E0,9.641749382E0,1.651999205E-1,9.817353143E0
1.640252688E0,-1.848323703E0,9.634567261E0,1.197100878E-1,9.810989620E0
1.642252654E0,-1.850717902E0,9.613018990E0,-4.788403399E-3,9.789551255E0
1.644252654E0,-1.867477298E0,9.605836868E0,-3.351882473E-2,9.785739467E0
1.646252687E0,-1.862688899E0,9.608230591E0,-1.675941236E-2,9.787133692E0
1.648252720E0,-1.802833915E0,9.591471672E0,-3.351882473E-2,9.759490892E0
1.650252753E0,-1.738190413E0,9.591471672E0,-2.873042040E-2,9.747741286E0
1.652252786E0,-1.719036818E0,9.589076996E0,-1.915361360E-2,9.741963461E0
1.654252819E0,-1.733402014E0,9.613018990E0,1.915361360E-2,9.768069589E0
1.656252852E0,-1.728613615E0,9.689633369E0,-2.394201700E-3,9.842616806E0
1.658251985E0,-1.728613615E0,9.689633369E0,-2.394201700E-3,9.842616806E0
1.660251118E0,-1.728613615E0,9.689633369E0,-2.394201700E-3,9.842616806E0
1.662251084E0,-1.726219416E0,9.703998566E0,1.675941236E-2,9.856353408E0
1.664251050E0,-1.625662923E0,9.699210167E0,-6.703764945E-2,9.834731915E0
1.666251016E0,-1.539471745E0,9.785401344E0,-5.746084079E-2,9.905925220E0
1.668250982E0,-1.503558636E0,1.000806236E1,5.506663769E-2,1.012052534E1
1.670250948E0,-1.637633920E0,1.006073475E1,1.795651317E-1,1.019472767E1
1.672250914E0,-1.661576033E0,1.002961063E1,1.029506698E-1,1.016683447E1
1.674250914E0,-1.563413739E0,9.996091843E0,-1.053448766E-1,1.011816249E1
1.676250947E0,-1.352723956E0,9.969755173E0,-2.968810201E-1,1.006548651E1
1.678251847E0,-1.156399369E0,9.943418503E0,-3.591302633E-1,1.001687604E1
1.680252747E0,-8.164227605E-1,9.897929192E0,-2.801215947E-1,9.935492767E0
1.682252780E0,-5.770025849E-1,9.840468407E0,-1.723825186E-1,9.858877531E0
1.684252813E0,-4.740519226E-1,9.802161217E0,-1.484405100E-1,9.814740156E0
1.686252846E0,-2.657563984E-1,9.826103210E0,-2.154781520E-1,9.832057852E0
1.688252879E0,-3.375824392E-1,9.763854027E0,-2.202665508E-1,9.772170931E0
1.690252912E0,-5.602431893E-1,9.723152161E0,-2.082955539E-1,9.741506424E0
1.692252912E0,-6.584054828E-1,9.591471672E0,-2.178723514E-1,9.616511580E0
1.694252912E0,-9.121908545E-1,9.316138268E0,-3.974374831E-1,9.369123808E0
1.696253312E0,-1.513135433E0,9.610625267E0,9.097966552E-2,9.729438533E0
1.698252445E0,-1.513135433E0,9.610625267E0,9.097966552E-2,9.729438533E0
1.700251578E0,-1.513135433E0,9.610625267E0,9.097966552E-2,9.729438533E0
1.702251944E0,-1.477222443E0,9.668086052E0,1.029506698E-1,9.780831912E0
1.704251944E0,-1.470039845E0,9.675268173E0,9.816227108E-2,9.786800662E0
1.706251910E0,-1.577778935E0,9.603442192E0,-2.873042040E-2,9.732230666E0
1.708251876E0,-1.587355733E0,9.723152161E0,-1.915361360E-2,9.851890835E0
1.710251842E0,-1.546654344E0,9.715970039E0,-2.154781483E-2,9.838326980E0
1.712251808E0,-1.515529633E0,9.627384186E0,-2.154781483E-2,9.745964326E0
1.714251774E0,-1.264138460E0,9.249100685E0,-2.106897533E-1,9.337467521E0
1.716251740E0,-1.347935557E0,9.304166794E0,-4.548983276E-2,9.401410496E0
1.718252573E0,-1.316810966E0,9.735123634E0,7.182604820E-2,9.824041036E0
1.720253406E0,-1.675941229E0,1.006312943E1,3.854664862E-1,1.020901255E1
1.722253406E0,-1.723825216E0,1.016847420E1,4.070142806E-1,1.032158425E1
1.724253439E0,-1.678335428E0,1.021875191E1,2.011129409E-1,1.035761299E1
1.726253472E0,-1.740584612E0,1.009425354E1,-1.268926859E-1,1.024400757E1
1.728253505E0,-1.608903527E0,9.917082787E0,-1.699883193E-1,1.004818380E1
1.730253538E0,-1.498770237E0,9.763854027E0,-2.274491638E-1,9.880834520E0
1.732253571E0,-1.216254473E0,9.234735489E0,-2.585737705E-1,9.318072488E0
1.734253604E0,-1.261744261E0,9.411906242E0,-8.140286058E-2,9.496452186E0
1.736253604E0,-1.793257117E0,9.775824547E0,4.429273009E-1,9.948804011E0
1.738252737E0,-1.793257117E0,9.775824547E0,4.429273009E-1,9.948804011E0
1.740251837E0,-1.793257117E0,9.775824547E0,4.429273009E-1,9.948804011E0
1.742251637E0,-1.838746905E0,9.732728958E0,2.777273953E-1,9.908790827E0
1.744251603E0,-1.745373011E0,9.246706009E0,-4.548983276E-2,9.410099271E0
1.746251569E0,-1.898601890E0,9.639355659E0,-1.675941236E-2,9.824568568E0
1.748251535E0,-2.082955360E0,9.818920135E0,8.858546615E-2,1.003781565E1
1.750251501E0,-2.169146776E0,9.967360497E0,8.858546615E-2,1.020104506E1
1.752251501E0,-1.798045516E0,9.526827812E0,-1.268926859E-1,9.695850535E0
1.754251534E0,-1.699883223E0,9.308955193E0,-1.891419291E-1,9.464778097E0
1.756251567E0,-1.953668594E0,9.876380920E0,2.537853718E-1,1.007095468E1
1.758252467E0,-2.185906172E0,1.011340714E1,4.309563041E-1,1.035591198E1
1.760253367E0,-2.389413357E0,1.052760410E1,4.788403511E-1,1.080597207E1
1.762253033E0,-2.391807556E0,1.064492035E1,4.309563041E-1,1.091882759E1
1.764253066E0,-2.327163935E0,1.063055515E1,2.322375625E-1,1.088477511E1
1.766253099E0,-2.051830769E0,1.030494308E1,-1.053448766E-1,1.050775709E1
1.768253132E0,-1.683123827E0,9.816526413E0,-3.351882398E-1,9.965412575E0
1.770253132E0,-4.884171486E-1,8.068758965E0,-8.020575643E-1,8.123220967E0
1.772253132E0,2.394201607E-2,7.704840183E0,-7.254431248E-1,7.738953624E0
1.774253132E0,-7.182605099E-3,7.934683800E0,-4.764461517E-1,7.948978521E0
1.776253132E0,-1.252167463E0,8.954613686E0,2.370259613E-1,9.044844439E0
1.778252265E0,-1.252167463E0,8.954613686E0,2.370259613E-1,9.044844439E0
1.780251398E0,-1.252167463E0,8.954613686E0,2.370259613E-1,9.044844439E0
1.782251398E0,-1.139639974E0,8.605060577E0,-2.442085743E-1,8.683633147E0
1.784251364E0,-1.063025594E0,8.794201851E0,-6.775590777E-1,8.884092295E0
1.786251330E0,-1.379060149E0,9.526827812E0,-4.477157295E-1,9.636529688E0
1.788251296E0,-1.707065821E0,1.004876423E1,-7.422025502E-2,1.019299980E1
1.790251262E0,-1.173158884E0,9.392752647E0,-7.182605099E-3,9.465735875E0
1.792251228E0,-1.043871999E0,9.263465881E0,-2.130839527E-1,9.324530747E0
1.794251194E0,-1.132457376E0,9.936236382E0,-1.221042871E-1,1.000130804E1
1.796251160E0,-1.702277422E0,1.067125607E1,3.854664862E-1,1.081304947E1
1.798251993E0,-1.616086125E0,1.016847420E1,2.561795712E-1,1.029928298E1
1.800252859E0,-1.295263171E0,9.787796021E0,-4.788403399E-3,9.873129218E0
1.802253059E0,-9.457096457E-1,9.818920135E0,-1.340752989E-1,9.865269157E0
1.804253092E0,-1.527500629E0,1.045577812E1,2.226607651E-1,1.056911217E1
1.806253125E0,-1.580173135E0,1.013256073E1,1.699883193E-1,1.025644335E1
1.808253158E0,-1.261744261E0,9.584288597E0,-8.619125932E-2,9.667368588E0
1.810253191E0,-1.163581967E0,9.991303444E0,-1.244984865E-1,1.005960076E1
1.812253224E0,-1.419761658E0,1.029536629E1,1.173158810E-1,1.039346204E1
1.814253224E0,-1.522712231E0,9.684844971E0,1.532289088E-1,9.805016764E0
1.816253224E0,-1.496376038E0,8.980949402E0,5.985504389E-2,9.104953379E0
1.818252324E0,-1.496376038E0,8.980949402E0,5.985504389E-2,9.104953379E0
1.820251424E0,-1.496376038E0,8.980949402E0,5.985504389E-2,9.104953379E0
1.822251890E0,-1.596932530E0,9.150938034E0,1.556231081E-1,9.290537065E0
1.824251856E0,-1.699883223E0,9.687239647E0,2.250549644E-1,9.837828250E0
1.826251822E0,-2.185906172E0,1.052042198E1,4.644751251E-1,1.075514768E1
1.828251788E0,-1.805228114E0,9.194033623E0,-2.537853718E-1,9.373020314E0
1.830251788E0,-1.386242747E0,9.397541046E0,-2.489969730E-1,9.502496838E0
1.832251788E0,-1.410184860E0,9.806949615E0,-4.788403213E-2,9.907934950E0
1.834251821E0,-1.956062794E0,9.706393242E0,-3.830722719E-2,9.901601833E0
1.836251854E0,-1.242590666E0,9.263465881E0,-3.519476354E-1,9.353058261E0
1.838252754E0,-9.911994934E-1,9.646537781E0,-2.873042040E-2,9.697370418E0
1.840253654E0,-1.867477298E0,1.001763916E1,3.256114423E-1,1.019541998E1
1.842253687E0,-1.283292055E0,9.150938034E0,-3.016694188E-1,9.245404796E0
1.844253720E0,-1.055842996E0,9.483732224E0,-1.484405100E-1,9.543480283E0
1.846253753E0,-1.769315004E0,1.023072338E1,4.620809257E-1,1.039286752E1
1.848253753E0,-1.663970232E0,9.450213432E0,-3.184288144E-1,9.600871198E0
1.850253753E0,-1.429338455E0,9.526827812E0,-3.734954596E-1,9.640692685E0
1.852253753E0,-1.096544385E0,1.002482224E1,4.788403213E-2,1.008472921E1
1.854253753E0,-2.173935175E0,1.028578949E1,2.082955539E-1,1.051507711E1
1.856253753E0,-1.470039845E0,1.018283939E1,1.843535304E-1,1.029005449E1
1.858252886E0,-1.470039845E0,1.018283939E1,1.843535304E-1,1.029005449E1
1.860252019E0,-1.994369984E0,1.035522175E1,5.291185975E-1,1.055879234E1
1.862251985E0,-1.515529633E0,9.818920135E0,1.843535304E-1,9.936901374E0
1.864251951E0,-8.355764151E-1,9.158121109E0,-3.256114423E-1,9.201923332E0
1.866251917E0,-8.044517636E-1,9.459790230E0,1.436521020E-2,9.493944396E0
1.868251883E0,-2.291250944E0,1.040310574E1,4.189853072E-1,1.066067486E1
1.870251849E0,-2.827552319E0,1.075744724E1,5.075707436E-1,1.113442191E1
1.872251815E0,-2.638410330E0,1.064013195E1,1.915361285E-1,1.096404593E1
1.874251781E0,-4.740519226E-1,8.698433876E0,-7.685387731E-1,8.745177469E0
1.876251747E0,-7.541735172E-1,9.282619476E0,-3.591302633E-1,9.320127498E0
1.878252613E0,-1.383848548E0,9.629778862E0,1.604115069E-1,9.730026186E0
1.880253513E0,-2.391807556E0,1.031691456E1,5.171475410E-1,1.060315571E1
1.882253046E0,-2.377442360E0,1.030494308E1,4.165911078E-1,1.058383826E1
1.884253079E0,-2.252943754E0,9.962572098E0,6.751648784E-1,1.023642740E1
1.886253112E0,-1.118092179E0,8.777442932E0,-3.423708379E-1,8.854990251E0
1.888253145E0,-7.757213712E-1,8.341697693E0,-4.189853072E-1,8.388159079E0
1.890253178E0,-1.177947283E0,9.033622742E0,-1.077390760E-1,9.110735829E0
1.892253211E0,-2.025494576E0,9.545981407E0,4.764461517E-1,9.770127442E0
1.894253211E0,-2.619256735E0,1.007749462E1,6.392518282E-1,1.043192440E1
1.896253177E0,-2.401384354E0,9.529222488E0,-1.005564705E-1,9.827656875E0
1.898252277E0,-2.401384354E0,9.529222488E0,-1.005564705E-1,9.827656875E0
1.900251377E0,-2.401384354E0,9.529222488E0,-1.005564705E-1,9.827656875E0
1.902251343E0,-1.089361787E0,8.521263123E0,-7.900865674E-1,8.626869136E0
1.904251309E0,-5.099649429E-1,8.581118584E0,-4.022258818E-1,8.605663603E0
1.906251275E0,-1.651999116E0,9.256282806E0,4.764461517E-1,9.414609573E0
1.908251275E0,-2.272097349E0,9.687239647E0,7.326257229E-1,9.977062633E0
1.910251275E0,-2.430114746E0,1.020917511E1,6.344634295E-1,1.051357494E1
1.912251275E0,-2.743755102E0,1.034325027E1,5.434837937E-1,1.071477452E1
1.914251275E0,-2.978386879E0,1.040071106E1,4.596867263E-1,1.082852210E1
1.916251275E0,-3.016694069E0,1.038874054E1,2.178723514E-1,1.082006661E1
1.918252141E0,-2.600103140E0,1.018762779E1,3.112462163E-2,1.051424106E1
1.920253007E0,-2.312798738E0,1.001524544E1,-4.548983276E-2,1.027892254E1
1.922253007E0,-1.778891921E0,9.658509254E0,-1.149216816E-1,9.821632475E0
1.924253007E0,-1.252167463E0,9.246706009E0,-1.556231081E-1,9.332401295E0
1.926253040E0,-1.146822572E0,9.103054047E0,-1.388636976E-1,9.176060054E0
1.928253073E0,1.005564705E-1,8.212410927E0,-1.041477680E0,8.278797050E0
1.930253106E0,1.323993564E0,7.676109791E0,-7.206547260E-1,7.822720992E0
1.932253139E0,-1.316810995E-1,8.437465668E0,1.412578970E-1,8.439675385E0
1.934253172E0,-9.409212470E-1,8.858845711E0,5.889736414E-1,8.928122427E0
1.936253205E0,-1.793257117E0,1.001045704E1,-1.819593310E-1,1.017143699E1
1.938252371E0,-1.793257117E0,1.001045704E1,-1.819593310E-1,1.017143699E1
1.940251504E0,-2.006340981E0,1.006791782E1,-2.442085743E-1,1.026878821E1
1.942251470E0,-2.006340981E0,1.006791782E1,-2.442085743E-1,1.026878821E1
1.944251436E0,-2.530671120E0,1.020917511E1,-1.819593310E-1,1.051972727E1
1.946251402E0,-2.583343744E0,1.026184750E1,-1.508347094E-1,1.058309643E1
1.948251368E0,-2.372653961E0,1.017565632E1,-1.316810995E-1,1.044944057E1
1.950251334E0,-1.951274395E0,9.938630104E0,9.097966552E-2,1.012877670E1
1.952251300E0,-7.829039693E-1,9.289801598E0,-5.434837937E-1,9.338561291E0
1.954251266E0,1.788468719E0,7.999327183E0,-4.668693244E-1,8.210104914E0
1.956251266E0,-1.388636976E-1,8.846874237E0,9.337386489E-2,8.848456677E0
1.958252166E0,-1.991975784E0,9.569923401E0,5.482721925E-1,9.790403660E0
1.960253066E0,-2.387019157E0,9.988908768E0,5.841852427E-1,1.028676000E1
1.962253099E0,-2.753331900E0,1.037198067E1,5.698199868E-1,1.074632562E1
1.964253132E0,-2.015917778E0,1.003439903E1,-6.464344263E-2,1.023509977E1
1.966253165E0,-1.795651317E0,9.869198799E0,-3.040636182E-1,1.003583097E1
1.968253198E0,-2.181117773E0,9.885957718E0,-2.370259613E-1,1.012648093E1
1.970253231E0,-2.099714994E0,9.866804123E0,-2.633621916E-2,1.008778074E1
1.972253264E0,-2.164358377E0,9.936236382E0,9.576806426E-2,1.016968102E1
1.974253264E0,2.106897533E-1,8.794201851E0,-6.392518282E-1,8.819921727E0
1.976253264E0,-2.161964178E0,9.866804123E0,3.543418646E-1,1.010710002E1
1.978252397E0,-2.161964178E0,9.866804123E0,3.543418646E-1,1.010710002E1
1.980251530E0,-2.161964178E0,9.866804123E0,3.543418646E-1,1.010710002E1
1.982251530E0,-2.166752577E0,1.009425354E1,3.782838583E-1,1.033111175E1
1.984251530E0,-2.008735180E0,1.011340714E1,2.777273953E-1,1.031470569E1
1.986251496E0,-2.755726099E0,1.030254936E1,3.184288144E-1,1.066948671E1
1.988251462E0,-3.303998232E0,1.043183613E1,1.508347094E-1,1.094359906E1
1.990251428E0,-3.169923067E0,1.045098972E1,2.633621916E-2,1.092118547E1
1.992251394E0,-3.002328873E0,1.039352894E1,3.351882473E-2,1.081852790E1
1.994251360E0,-2.724601507E0,1.029057789E1,1.316810995E-1,1.064597513E1
1.996251326E0,-2.487575531E0,1.010861874E1,1.604115069E-1,1.041143298E1
1.998252159E0,-2.518700123E0,9.986514091E0,1.221042871E-1,1.029996230E1
2.000252992E0,-2.540247917E0,9.809343338E0,6.943184882E-2,1.013315829E1
2.002252992E0,-2.384624958E0,9.699210167E0,1.101332754E-1,9.988655735E0
2.004253025E0,-2.276885748E0,9.651326180E0,1.077390760E-1,9.916849976E0
2.006253058E0,-2.051830769E0,9.550769806E0,1.005564705E-1,9.769202884E0
2.008253091E0,-1.821987510E0,9.490914345E0,2.873042040E-2,9.664259880E0
2.010253124E0,-1.695094824E0,9.459790230E0,-1.436521020E-2,9.610472622E0
2.012253157E0,-1.479616642E0,9.431059837E0,-8.140286058E-2,9.546768117E0
2.014253190E0,-1.256955862E0,9.411906242E0,-1.460463107E-1,9.496591319E0
2.016253223E0,-1.022324085E0,9.469367027E0,-1.771709323E-1,9.526040519E0
2.018252356E0,-1.022324085E0,9.469367027E0,-1.771709323E-1,9.526040519E0
2.020251456E0,-1.034295082E0,9.469367027E0,-1.915361285E-1,9.527610629E0
2.022251422E0,-1.055842996E0,9.483732224E0,-1.939303428E-1,9.544296218E0
2.024251388E0,-1.051054597E0,9.543587685E0,-1.819593310E-1,9.603014676E0
2.026251354E0,-1.082179189E0,9.624990463E0,-1.651999205E-1,9.687045175E0
2.028251320E0,-1.149216771E0,9.694421768E0,-1.604115069E-1,9.763618410E0
2.030251286E0,-1.180341482E0,9.715970039E0,-1.580173075E-1,9.788679650E0
2.032251252E0,-1.106121182E0,9.759065628E0,-1.268926859E-1,9.822370781E0
2.034251252E0,-1.158793569E0,9.811738014E0,-1.029506698E-1,9.880465790E0
2.036251285E0,-1.228225470E0,9.826103210E0,-9.576806426E-2,9.903030528E0
2.038252185E0,-1.352723956E0,9.802161217E0,-5.985504389E-2,9.895241748E0
2.040253085E0,-1.297657371E0,9.737517357E0,-7.900865376E-2,9.823919854E0
2.042253118E0,-4.501099288E-1,9.239523888E0,-3.734954596E-1,9.258018118E0
2.044253151E0,3.600879431E0,7.082347870E0,-1.007958889E0,8.008867907E0
2.046253184E0,1.441309452E0,8.198045731E0,-5.339069963E-1,8.340886249E0
2.048253217E0,3.423708379E-1,8.432677269E0,-2.753331959E-1,8.444114642E0
2.050253250E0,-1.537077546E0,9.428665161E0,3.591302410E-2,9.553199665E0
2.052253250E0,-2.501940727E0,1.032170296E1,4.692635238E-1,1.063096739E1
2.054253250E0,-2.094926596E0,1.043183613E1,5.315127969E-1,1.065337638E1
2.056253250E0,-2.178723574E0,1.055394077E1,-1.675941199E-1,1.077778224E1
2.058252383E0,-2.829946518E0,1.073589993E1,-2.920926213E-1,1.110646040E1
2.060251516E0,-2.829946518E0,1.073589993E1,-2.920926213E-1,1.110646040E1
2.062251516E0,-2.829946518E0,1.073589993E1,-2.920926213E-1,1.110646040E1
2.064251482E0,-3.356670856E0,1.101841545E1,-9.337386489E-2,1.151874286E1
2.066251448E0,-3.442862034E0,1.106390572E1,1.939303428E-1,1.158882728E1
2.068251414E0,-3.303998232E0,1.095855999E1,2.322375625E-1,1.144816036E1
2.070251380E0,-1.300051570E0,9.806949615E0,-5.985504389E-2,9.892925628E0
2.072251346E0,1.259350061E0,8.755894661E0,-3.303998411E-1,8.852164591E0
2.074251312E0,8.116343617E-1,9.012074471E0,-3.615244627E-1,9.055768136E0
2.076251278E0,-8.858546615E-2,9.019257545E0,-1.436521020E-2,9.019704009E0
2.078252111E0,-1.295263171E0,9.431059837E0,1.843535304E-1,9.521375035E0
2.080252977E0,-1.757344007E0,9.735123634E0,3.399766386E-1,9.898306636E0
2.082252977E0,-2.375048161E0,1.013734913E1,5.602431893E-1,1.042691582E1
2.084253010E0,-2.858676910E0,1.039831734E1,4.668693244E-1,1.079421160E1
2.086253043E0,-2.964021683E0,1.046296024E1,2.035071403E-1,1.087659766E1
2.088252676E0,-2.916137695E0,1.045098972E1,6.703764945E-2,1.085041655E1
2.090252709E0,-2.439691544E0,1.033606815E1,-1.316810995E-1,1.062091049E1
2.092252742E0,-1.800439715E0,1.012298393E1,-2.059013397E-1,1.028390890E1
2.094252775E0,-1.467645645E0,1.002961063E1,-1.819593310E-1,1.013805615E1
2.096252775E0,1.915361360E-2,9.129390717E0,-3.591302410E-2,9.129481445E0
2.098251875E0,1.915361360E-2,9.129390717E0,-3.591302410E-2,9.129481445E0
2.100250975E0,1.915361360E-2,9.129390717E0,-3.591302410E-2,9.129481445E0
2.102250941E0,9.576806426E-2,9.033622742E0,-2.873042040E-2,9.034176044E0
2.104250907E0,4.309562966E-2,8.913911819E0,-5.985504389E-2,8.914216947E0
2.106250873E0,1.436521020E-2,8.882787704E0,-8.379705995E-2,8.883194567E0
2.108250839E0,-7.182604820E-2,8.870816231E0,-1.149216816E-1,8.871851361E0
2.110250805E0,-1.795651317E-1,8.894758224E0,-1.699883193E-1,8.898194398E0
2.112250805E0,-2.537853718E-1,8.921094894E0,-1.891419291E-1,8.926708005E0
2.114250838E0,-3.830722570E-1,9.028834343E0,-1.939303428E-1,9.039037721E0
2.116250871E0,-3.615244627E-1,9.129390717E0,-2.059013397E-1,9.138865912E0
2.118251771E0,-3.303998411E-1,9.186851501E0,-1.963245422E-1,9.194887052E0
2.120252671E0,-3.112462163E-1,9.287407875E0,-1.675941199E-1,9.294132936E0
2.122252704E0,-3.543418646E-1,9.380781174E0,-1.340752989E-1,9.388428504E0
2.124252737E0,-4.644751251E-1,9.476549149E0,-5.746084079E-2,9.488099001E0
2.126252770E0,-5.243301988E-1,9.519645691E0,-6.703764945E-2,9.534310163E0
2.128252803E0,-6.368576288E-1,9.601048470E0,-1.436520964E-1,9.623219590E0
2.130252803E0,-7.134721279E-1,9.672874451E0,-1.699883193E-1,9.700641146E0
2.132252803E0,-7.517793179E-1,9.696816444E0,-1.675941199E-1,9.727358793E0
2.134252803E0,-8.283938169E-1,9.787796021E0,-1.508347094E-1,9.823947189E0
2.136252803E0,-9.864110947E-1,9.929053307E0,0.000000000E0,9.977930969E0
2.138251936E0,-1.015141487E0,9.967360497E0,4.309562966E-2,1.001901416E1
2.140251036E0,-1.015141487E0,9.967360497E0,4.309562966E-2,1.001901416E1
2.142251036E0,-1.065419793E0,9.996091843E0,8.619125932E-2,1.005307915E1
2.144251002E0,-1.127668977E0,1.001285076E1,1.244984865E-1,1.007692004E1
2.146250968E0,-1.256955862E0,1.005115795E1,1.364694983E-1,1.013036713E1
2.148251334E0,-1.479616642E0,1.007988834E1,1.053448766E-1,1.018844993E1
2.150251300E0,-1.647210717E0,1.010143661E1,8.858546615E-2,1.023524168E1
2.152251266E0,-1.821987510E0,1.014692593E1,4.309562966E-2,1.030929685E1
2.154251232E0,-1.867477298E0,1.018523312E1,1.915361360E-2,1.035503800E1
2.156251332E0,-2.025494576E0,1.018523312E1,-9.576806799E-3,1.038468553E1
2.158252198E0,-2.075772762E0,1.013734913E1,-3.591302410E-2,1.034775191E1
2.160253064E0,-2.123656988E0,1.002961063E1,-1.915361360E-2,1.025199372E1
2.162253097E0,-1.944091797E0,9.967360497E0,3.351882473E-2,1.015523962E1
2.164253130E0,-1.807622313E0,9.941024780E0,6.224924326E-2,1.010422422E1
2.166253163E0,-1.503558636E0,9.809343338E0,1.268926859E-1,9.924716976E0
2.168252429E0,-6.871358752E-1,9.435848236E0,4.788403213E-2,9.460955582E0
2.170252462E0,3.591302410E-2,9.079112053E0,9.337386489E-2,9.079663215E0
2.172252495E0,6.009446383E-1,8.933065414E0,1.364694983E-1,8.954295957E0
2.174252495E0,-3.184288144E-1,9.270648003E0,-8.379705995E-2,9.276493586E0
2.176252461E0,-3.445256233E0,1.048929691E1,3.615244627E-1,1.104653069E1
2.178251561E0,-3.445256233E0,1.048929691E1,3.615244627E-1,1.104653069E1
2.180250661E0,-3.445256233E0,1.048929691E1,3.615244627E-1,1.104653069E1
2.182250627E0,-3.445256233E0,1.048929691E1,3.615244627E-1,1.104653069E1
2.184250593E0,-4.211400986E0,1.074308205E1,2.873041928E-1,1.154262768E1
2.186250559E0,-4.091690540E0,1.079336071E1,1.077390760E-1,1.154340394E1
2.188250525E0,-3.636792421E0,1.077181244E1,-1.675941236E-2,1.136919009E1
2.190250525E0,-3.421314240E0,1.064252567E1,-8.619125932E-2,1.117927425E1
2.192250558E0,-2.516305923E0,1.033127975E1,-8.379705995E-2,1.063363338E1
2.194250591E0,-8.978256583E-1,9.684844971E0,-5.267243832E-2,9.726514659E0
2.196250624E0,-2.106897533E-1,9.323320389E0,-1.221042871E-1,9.326500024E0
2.198252557E0,2.473210335E0,7.793426037E0,-3.471592367E-1,8.183811966E0
2.200253490E0,3.131615877E0,8.030451775E0,-4.932055473E-1,8.633563889E0
2.202253523E0,2.499546528E0,8.281843185E0,-3.136404157E-1,8.656502163E0
2.204253556E0,1.015141487E0,8.686463356E0,-2.513911724E-1,8.749191700E0
2.206253589E0,-5.147533417E-1,9.239523888E0,9.097966552E-2,9.254299000E0
2.208253255E0,-9.768342972E-1,9.493309021E0,2.896983922E-1,9.547829417E0
2.210253255E0,-1.853112102E0,9.885957718E0,4.764461517E-1,1.006941832E1
2.212253255E0,-2.485181332E0,1.014453220E1,2.896983922E-1,1.044852071E1
2.214253255E0,-2.604891539E0,1.019480991E1,1.244984865E-1,1.052307507E1
2.216253121E0,-9.959878922E-1,9.897929192E0,-1.891419291E-1,9.949711997E0
2.218252254E0,-9.959878922E-1,9.897929192E0,-1.891419291E-1,9.949711997E0
2.220251387E0,-9.959878922E-1,9.897929192E0,-1.891419291E-1,9.949711997E0
2.222251353E0,-6.057330370E-1,9.775824547E0,-1.460463107E-1,9.795661673E0
2.224251319E0,-1.508347094E-1,9.569923401E0,-1.125274822E-1,9.571773474E0
2.226251285E0,-7.182605099E-3,9.397541046E0,-1.268926859E-1,9.398400452E0
2.228251885E0,9.576806426E-2,9.285013199E0,-1.340752989E-1,9.286474994E0
2.230251851E0,2.346317619E-1,9.117419243E0,-8.379705995E-2,9.120822751E0
2.232251817E0,1.580173075E-1,9.081506729E0,-1.675941236E-2,9.082896830E0
2.234251783E0,9.337386489E-2,9.095871925E0,1.197100803E-2,9.096359055E0
2.236251783E0,-3.615244627E-1,9.285013199E0,3.830722719E-2,9.292127716E0
2.238252649E0,-4.932055473E-1,9.368810654E0,4.070143029E-2,9.381871955E0
2.240253549E0,-6.153098345E-1,9.459790230E0,3.112462163E-2,9.479831545E0
2.242253582E0,-8.499416113E-1,9.615413666E0,-9.576806799E-3,9.652910049E0
2.244253615E0,-1.046266198E0,9.751882553E0,-1.436521020E-2,9.807858719E0
2.246253648E0,-1.223437071E0,9.852438927E0,-2.394201607E-2,9.928138007E0
2.248253681E0,-1.331176162E0,9.902717590E0,-2.873042040E-2,9.991830217E0
2.250253714E0,-1.482010841E0,9.991303444E0,-3.112462163E-2,1.010066678E1
2.252253714E0,-1.498770237E0,1.002961063E1,-2.873042040E-2,1.014101707E1
2.254253680E0,-1.532289028E0,1.009664822E1,9.576806799E-3,1.021226256E1
2.256253646E0,-1.750161409E0,1.017086792E1,-4.788403399E-3,1.032035087E1
2.258251712E0,-1.750161409E0,1.017086792E1,-4.788403399E-3,1.032035087E1
2.260250812E0,-1.750161409E0,1.017086792E1,-4.788403399E-3,1.032035087E1
2.262250778E0,-1.637633920E0,1.014213753E1,-7.182605099E-3,1.027350233E1
2.264250744E0,-1.343147159E0,1.006791782E1,4.309562966E-2,1.015720783E1
2.266250710E0,-1.156399369E0,1.003679276E1,7.900865376E-2,1.010349992E1
2.268251043E0,-7.469909191E-1,9.854833603E0,1.125274822E-1,9.883744392E0
2.270251076E0,9.457096457E-1,9.237129211E0,3.758896589E-1,9.293019737E0
2.272251109E0,2.015917778E0,8.992920876E0,4.812345505E-1,9.228658464E0
2.274251142E0,1.252167463E0,9.134179115E0,5.267243832E-2,9.219757364E0
2.276251175E0,1.005564705E-1,9.387964249E0,-5.219359994E-1,9.402999603E0
2.278252075E0,-5.267243981E-1,9.610625267E0,-4.908113480E-1,9.637554275E0
2.280252975E0,-1.632845521E0,1.005115795E1,-1.771709323E-1,1.018446612E1
2.282253008E0,-2.425326347E0,1.041747093E1,1.077390760E-1,1.069661237E1
2.284253041E0,-2.624045134E0,1.056351757E1,1.843535304E-1,1.088611513E1
2.286253041E0,-2.806004286E0,1.072153473E1,1.675941199E-1,1.108390972E1
2.288253174E0,-2.449268341E0,1.071195793E1,2.394201607E-2,1.098842716E1
2.290253174E0,-1.709460020E0,1.049169159E1,1.197100803E-2,1.063005124E1
2.292253174E0,-1.288080573E0,1.034325027E1,3.112462163E-2,1.042319272E1
2.294253174E0,-5.937620401E-1,1.007749462E1,6.943184882E-2,1.009521035E1
2.296253174E0,1.316810995E-1,9.426271439E0,-9.576806426E-2,9.427677586E0
2.298252307E0,1.316810995E-1,9.426271439E0,-9.576806426E-2,9.427677586E0
2.300251407E0,1.316810995E-1,9.426271439E0,-9.576806426E-2,9.427677586E0
2.302251373E0,1.053448766E-1,9.397541046E0,-6.943184882E-2,9.398387949E0
2.304251339E0,1.580173075E-1,9.340080261E0,-6.224924326E-2,9.341624255E0
2.306251305E0,1.699883193E-1,9.234735489E0,-3.351882473E-2,9.236360706E0
2.308251271E0,9.576806426E-2,9.186851501E0,2.873042040E-2,9.187395576E0
2.310251237E0,3.591302410E-2,9.198822021E0,3.830722719E-2,9.198971887E0
2.312251203E0,-1.412578970E-1,9.256282806E0,3.830722719E-2,9.257439853E0
2.314251203E0,-3.064578176E-1,9.323320389E0,2.873042040E-2,9.328399911E0
2.316250303E0,-4.860229492E-1,9.366415977E0,1.915361360E-2,9.379036914E0
2.318251203E0,-4.788403511E-1,9.435848236E0,-9.576806799E-3,9.447995117E0
2.320252103E0,-5.099649429E-1,9.486125946E0,-7.900865376E-2,9.500152213E0
2.322252136E0,-4.955997467E-1,9.524434090E0,-1.005564705E-1,9.537849624E0
2.324252169E0,-5.075707436E-1,9.553164482E0,-8.858546615E-2,9.567049026E0
2.326252202E0,-4.477157295E-1,9.574711800E0,-3.112462163E-2,9.585224262E0
2.328252235E0,-3.016694188E-1,9.541193008E0,-7.182605099E-3,9.545963548E0
2.330252235E0,-2.298433632E-1,9.545981407E0,0.000000000E0,9.548748033E0
2.332252235E0,-2.370259613E-1,9.586683273E0,1.197100803E-2,9.589620472E0
2.334252201E0,-2.489969730E-1,9.644144058E0,-2.873042040E-2,9.647400663E0
2.336252167E0,-3.950432837E-1,9.730335236E0,-5.746084079E-2,9.738520665E0
2.338251267E0,-3.950432837E-1,9.730335236E0,-5.746084079E-2,9.738520665E0
2.340250367E0,-3.950432837E-1,9.730335236E0,-5.746084079E-2,9.738520665E0
2.342250333E0,-4.764461517E-1,9.744700432E0,-5.985504389E-2,9.756524487E0
2.344250299E0,-5.841852427E-1,9.797372818E0,-5.506663769E-2,9.814928368E0
2.346250299E0,-6.560112834E-1,9.818920135E0,-1.675941236E-2,9.840824371E0
2.348250332E0,-6.919242740E-1,9.830891609E0,0.000000000E0,9.855211263E0
2.350250332E0,-7.541735172E-1,9.847650528E0,3.591302410E-2,9.876552453E0
2.352250365E0,-8.164227605E-1,9.826103210E0,6.464344263E-2,9.860173893E0
2.354250398E0,-8.690952063E-1,9.804554939E0,9.337386489E-2,9.843441609E0
2.356250431E0,-1.015141487E0,9.802161217E0,9.097966552E-2,9.855006548E0
2.358251331E0,-1.036689281E0,9.811738014E0,9.337386489E-2,9.866795133E0
2.360252231E0,-9.265560508E-1,9.809343338E0,9.337386489E-2,9.853448204E0
2.362252264E0,-8.882488012E-1,9.794978142E0,8.140286058E-2,9.835507570E0
2.364252264E0,-6.009446383E-1,9.672874451E0,8.379705995E-2,9.691886119E0
2.366252264E0,9.864110947E-1,8.897152901E0,1.268926859E-1,8.952566020E0
2.368252264E0,3.052607059E0,8.063970566E0,-1.005564705E-1,8.623000797E0
2.370252264E0,2.142810583E0,8.614637375E0,-2.896983922E-1,8.881865764E0
2.372252264E0,2.322375625E-1,9.282619476E0,-5.291185975E-1,9.300587353E0
2.374252264E0,-7.278373241E-1,9.605836868E0,-5.339069963E-1,9.648155564E0
2.376253164E0,-2.578555346E0,1.093940639E1,6.655880809E-1,1.125888837E1
2.378252264E0,-2.578555346E0,1.093940639E1,6.655880809E-1,1.125888837E1
2.380251364E0,-2.578555346E0,1.093940639E1,6.655880809E-1,1.125888837E1
2.382251330E0,-2.401384354E0,1.087715721E1,6.033388376E-1,1.115541185E1
2.384251296E0,-1.989581585E0,1.065210247E1,2.489969730E-1,1.083917531E1
2.386251262E0,-1.675941229E0,1.036958694E1,-2.394201700E-3,1.050414766E1
2.388251228E0,-1.546654344E0,1.021875191E1,-4.309562966E-2,1.033522556E1
2.390251194E0,-1.168370485E0,9.991303444E0,-5.267243832E-2,1.005952327E1
2.392251160E0,-8.882488012E-1,9.917082787E0,-2.633621916E-2,9.956817289E0
2.394251160E0,-7.948749661E-1,9.878775597E0,-4.548983276E-2,9.910807375E0
2.396251193E0,-2.896983922E-1,9.665691376E0,-4.788403213E-2,9.670150351E0
2.398252093E0,9.313444495E-1,9.285013199E0,1.460463107E-1,9.332748904E0
2.400252993E0,2.087743998E0,8.961795807E0,2.633621991E-1,9.205531964E0
2.402253026E0,1.450886250E0,9.036016464E0,2.298433632E-1,9.154643217E0
2.404253059E0,-8.140286058E-2,9.402329445E0,-1.867477298E-1,9.404536146E0
2.406253092E0,-1.479616642E0,9.639355659E0,-2.394201756E-1,9.755191693E0
2.408253092E0,-1.903390408E0,1.012298393E1,-9.576806426E-2,1.030081891E1
2.410253125E0,-2.358288765E0,1.043422985E1,1.244984865E-1,1.069813901E1
2.412253091E0,-2.545036316E0,1.056591129E1,1.604115069E-1,1.086928807E1
2.414253057E0,-3.229778051E0,1.084603310E1,1.125274822E-1,1.131726834E1
2.416253023E0,-2.267308950E0,1.049169159E1,-5.985504389E-2,1.073405165E1
2.418252123E0,-2.267308950E0,1.049169159E1,-5.985504389E-2,1.073405165E1
2.420251223E0,-2.267308950E0,1.049169159E1,-5.985504389E-2,1.073405165E1
2.422251189E0,-1.678335428E0,1.030494308E1,-2.154781483E-2,1.044074356E1
2.424251189E0,-5.817909837E-1,9.950601578E0,2.154781483E-2,9.967618412E0
2.426251189E0,-2.896983922E-1,9.754277229E0,-1.436521020E-2,9.758588821E0
2.428251189E0,-1.149216816E-1,9.459790230E0,-3.591302410E-2,9.460556428E0
2.430251189E0,-3.351882473E-2,9.299378395E0,-4.788403213E-2,9.299562083E0
2.432251189E0,-1.005564705E-1,9.253889084E0,-4.788403213E-2,9.254559290E0
2.434251189E0,-3.878606856E-1,9.191639900E0,-9.097966552E-2,9.200269413E0
2.436251189E0,-4.955997467E-1,9.134179115E0,-1.340752989E-1,9.148596800E0
2.438252055E0,-4.189853072E-1,9.071929932E0,-1.149216816E-1,9.082327255E0
2.440252921E0,-3.184288144E-1,8.942642212E0,-5.985504389E-2,8.948509891E0
2.442252954E0,-1.029506698E-1,8.882787704E0,4.070143029E-2,8.883477520E0
2.444252987E0,-3.830722719E-2,8.846874237E0,5.746084079E-2,8.847143774E0
2.446253020E0,-2.322375625E-1,8.866027832E0,8.140286058E-2,8.869442498E0
2.448253053E0,-5.219359994E-1,8.928277016E0,1.915361360E-2,8.943540379E0
2.450253086E0,-5.961562395E-1,8.961795807E0,2.394201700E-3,8.981602979E0
2.452253119E0,-6.847416759E-1,9.000102997E0,-5.027823523E-2,9.026253543E0
2.454253152E0,-8.236053586E-1,9.126996040E0,-5.267243832E-2,9.164232477E0
2.456253152E0,-1.115697980E0,9.553164482E0,2.633621916E-2,9.618130130E0
2.458252252E0,-1.292868972E0,9.634567261E0,9.576806799E-3,9.720930418E0
2.460251352E0,-1.292868972E0,9.634567261E0,9.576806799E-3,9.720930418E0
2.462251318E0,-1.477222443E0,9.715970039E0,2.394201700E-3,9.827627673E0
2.464251984E0,-1.740584612E0,9.799766541E0,1.197100803E-2,9.953150373E0
2.466251950E0,-2.114080191E0,1.004636955E1,6.943184882E-2,1.026663027E1
2.468251916E0,-1.750161409E0,1.011101341E1,1.484405100E-1,1.026244083E1
2.470251882E0,-4.860229492E-1,9.816526413E0,2.561795712E-1,9.831888786E0
2.472251882E0,5.281908035E0,8.396764755E0,7.422025502E-2,9.920167312E0
2.474251915E0,3.452438831E0,8.937853813E0,-4.836287498E-1,9.593667778E0
2.476251948E0,5.865794420E-1,9.263465881E0,-5.075707436E-1,9.295886383E0
2.478252848E0,8.571242094E-1,9.390357971E0,1.029506698E-1,9.429956711E0
2.480253748E0,2.832340717E0,9.615413666E0,1.448492050E0,1.012800391E1
2.482253781E0,-1.628057212E-1,1.004636955E1,6.943184733E-1,1.007164957E1
2.484253814E0,-2.698265314E0,1.035522175E1,-3.615244627E-1,1.070709826E1
2.486253847E0,-2.384624958E0,1.025945377E1,-5.339069963E-1,1.054646313E1
2.488253880E0,-1.086967587E0,1.032888508E1,-5.386953950E-1,1.039988261E1
2.490253880E0,-2.360682964E0,1.047732544E1,-6.344634295E-1,1.075870421E1
2.492253880E0,-3.387795448E0,1.039592266E1,-2.705447972E-1,1.093734705E1
2.494253880E0,-2.035071403E-1,1.023072338E1,1.235408068E0,1.030705337E1
2.496253880E0,-2.011129379E0,9.811738014E0,-6.607996821E-1,1.003750469E1
2.498253013E0,-2.011129379E0,9.811738014E0,-6.607996821E-1,1.003750469E1
2.500252146E0,-2.011129379E0,9.811738014E0,-6.607996821E-1,1.003750469E1
2.502252112E0,-2.123656988E0,9.838073730E0,-6.272808313E-1,1.008420026E1
2.504252078E0,5.147533417E-1,9.567529678E0,-7.422025204E-1,9.610070745E0
2.506252044E0,-2.011129379E0,9.854833603E0,-8.834604025E-1,1.009667713E1
2.508252010E0,-2.971204281E0,9.917082787E0,-8.212111592E-1,1.038513234E1
2.510251976E0,-4.496310711E0,1.033846188E1,-1.412578970E-1,1.127477529E1
2.512251942E0,-4.295197964E0,1.064492035E1,3.232172430E-1,1.148335858E1
2.514251908E0,-3.526659012E0,1.060182476E1,4.860229492E-1,1.118356966E1
2.516251874E0,-1.932120800E0,1.030254936E1,5.865794420E-1,1.049855655E1
2.518252740E0,2.528276920E0,9.701604843E0,1.345541358E0,1.011552284E1
2.520253640E0,7.333739281E0,8.923488617E0,1.905784607E0,1.170659626E1
2.522253673E0,5.710470200E0,8.731952667E0,4.620809257E-1,1.044365770E1
2.524253006E0,1.776497602E0,8.700828552E0,-1.364694953E0,8.984584216E0
2.526253039E0,-2.489969730E-1,9.239523888E0,-9.840168953E-1,9.295111103E0
2.528253072E0,-4.692635238E-1,9.452607155E0,-8.283938169E-1,9.500432969E0
2.530253105E0,-4.333505034E-1,9.672874451E0,-7.110779285E-1,9.708652049E0
2.532253138E0,-1.843535304E-1,9.675268173E0,-7.086837292E-1,9.702939404E0
2.534253138E0,-3.112462163E-1,9.682451248E0,-5.075707436E-1,9.700740407E0
2.536253104E0,-2.214636564E0,9.996091843E0,8.140285611E-1,1.027078915E1
2.538252204E0,-2.214636564E0,9.996091843E0,8.140285611E-1,1.027078915E1
2.540251304E0,-2.288856745E0,1.013495541E1,6.560112834E-1,1.041088551E1
2.542251104E0,-2.288856745E0,1.013495541E1,6.560112834E-1,1.041088551E1
2.544251070E0,-2.130839586E0,1.013734913E1,2.394201756E-1,1.036164305E1
2.546251136E0,-1.628057122E0,1.001524544E1,5.267243832E-2,1.014684609E1
2.548251102E0,-1.316810966E0,9.967360497E0,3.830722719E-2,1.005404067E1
2.550251102E0,-3.591302633E-1,9.921871185E0,3.711012602E-1,9.935301632E0
2.552251135E0,4.932055473E-1,9.960178375E0,1.118092179E0,1.003486597E1
2.554251168E0,6.464344859E-1,9.993697166E0,1.039083481E0,1.006834421E1
2.556251201E0,4.860229492E-1,1.013016701E1,-1.987187415E-1,1.014376612E1
2.558252101E0,5.985504389E-1,1.021156979E1,5.985504389E-2,1.022927186E1
2.560253001E0,4.477157295E-1,1.022593498E1,-8.379705995E-2,1.023607432E1
2.562253034E0,2.489969730E-1,1.022354031E1,-7.182605267E-1,1.025176444E1
2.564253067E0,6.057330370E-1,1.011101341E1,-1.041477680E0,1.018254293E1
2.566253100E0,1.213860273E0,9.962572098E0,-1.163581967E0,1.010347577E1
2.568253100E0,6.572382927E0,9.349657059E0,2.633621991E-1,1.143160812E1
2.570253100E0,7.386411667E0,8.959402084E0,6.751648784E-1,1.163124287E1
2.572253100E0,4.668693542E0,8.815750122E0,-3.184288144E-1,9.980758815E0
2.574253100E0,6.823474765E-1,9.055170059E0,-7.996633649E-1,9.115984005E0
2.576253100E0,-1.941697598E0,1.002242756E1,-1.436520964E-1,1.020979332E1
2.578252233E0,-1.941697598E0,1.003439903E1,-1.436520964E-1,1.022154535E1
2.580251333E0,-1.941697598E0,1.003439903E1,-1.436520964E-1,1.022154535E1
2.582251299E0,-2.094926596E0,1.002961063E1,-1.101332754E-1,1.024665488E1
2.584251265E0,-1.683123827E0,1.001045704E1,-1.436521020E-2,1.015097839E1
2.586251231E0,-1.541865945E0,9.941024780E0,5.267243832E-2,1.006002478E1
2.588251197E0,-1.692700624E0,9.792584419E0,1.077390760E-1,9.938387833E0
2.590251163E0,-1.826775908E0,9.747094154E0,1.077390760E-1,9.917386873E0
2.592251129E0,-1.728613615E0,9.730335236E0,9.816227108E-2,9.883175839E0
2.594251095E0,-1.194706678E0,9.675268173E0,1.125274822E-1,9.749400018E0
2.596251095E0,6.248866320E-1,9.567529678E0,3.256114423E-1,9.593442044E0
2.598252528E0,1.386242747E0,9.524434090E0,3.878606856E-1,9.632598278E0
2.600253428E0,4.441244125E0,9.409511566E0,1.340752959E0,1.049100452E1
2.602253628E0,5.411195278E0,9.486125946E0,1.276109457E0,1.099527513E1
2.604253661E0,3.677493811E0,9.481337547E0,3.854664862E-1,1.017685152E1
2.606253594E0,4.070143029E-2,9.692028046E0,-6.177040339E-1,9.711777516E0
2.608253627E0,-3.394978046E0,1.023790550E1,-6.727706790E-1,1.080709051E1
2.610253660E0,-3.473986626E0,1.043183613E1,-4.884171486E-1,1.100592292E1
2.612253660E0,-2.858676910E0,1.052281570E1,-2.250549644E-1,1.090652712E1
2.614253626E0,-3.749319792E0,1.021156979E1,-1.915361360E-2,1.087813970E1
2.616253592E0,-3.294421434E0,9.419088364E0,4.501099288E-1,9.988745524E0
2.618252692E0,-3.294421434E0,9.419088364E0,4.501099288E-1,9.988745524E0
2.620251792E0,-2.736572504E0,9.282619476E0,4.453215301E-1,9.687835913E0
2.622251758E0,-2.161964178E0,9.170091629E0,3.854664862E-1,9.429382483E0
2.624251724E0,-1.589749932E0,9.083900452E0,2.729389966E-1,9.225998480E0
2.626251690E0,-5.674257874E-1,9.004891396E0,4.788403213E-2,9.022878363E0
2.628251690E0,2.130839527E-1,9.050381660E0,-6.703764945E-2,9.053137965E0
2.630251723E0,4.764461517E-1,9.126996040E0,-9.576806426E-2,9.139925009E0
2.632251756E0,7.565677166E-1,9.371204376E0,-1.532289088E-1,9.402943436E0
2.634251789E0,8.427590132E-1,9.668086052E0,-1.891419291E-1,9.706590819E0
2.636251455E0,8.331822157E-1,9.828496933E0,-1.460463107E-1,9.864830160E0
2.638252355E0,8.188169599E-1,1.008228302E1,-1.149216816E-1,1.011613064E1
2.640253255E0,7.829039693E-1,1.018044472E1,-4.548983276E-2,1.021060540E1
2.642253288E0,7.829039693E-1,1.018523312E1,-2.873042040E-2,1.021531878E1
2.644253321E0,7.900865674E-1,1.011819553E1,-3.112462163E-2,1.014904362E1
2.646253321E0,7.924807668E-1,9.976937294E0,-2.154781483E-2,1.000838488E1
2.648253321E0,8.020575643E-1,9.897929192E0,-4.788403399E-3,9.930373686E0
2.650253321E0,8.020575643E-1,9.742305756E0,9.576806799E-3,9.775270303E0
2.652253321E0,7.900865674E-1,9.603442192E0,2.873042040E-2,9.635930892E0
2.654253321E0,7.445967197E-1,9.550769806E0,2.873042040E-2,9.579794027E0
2.656253321E0,6.560112834E-1,9.560346603E0,2.873042040E-2,9.582870312E0
2.658251887E0,6.224924326E-1,9.596260071E0,1.436521020E-2,9.616439598E0
2.660250987E0,6.224924326E-1,9.596260071E0,1.436521020E-2,9.616439598E0
2.662250853E0,6.224924326E-1,9.596260071E0,1.436521020E-2,9.616439598E0
2.664250819E0,5.434837937E-1,9.680056572E0,1.436521020E-2,9.695312075E0
2.666250785E0,4.548983276E-1,9.766247749E0,3.591302410E-2,9.776902236E0
2.668250751E0,3.974374831E-1,9.794978142E0,4.788403213E-2,9.803154912E0
2.670250717E0,2.920926213E-1,9.866804123E0,7.661445439E-2,9.871423984E0
2.672250683E0,2.202665508E-1,9.917082787E0,7.661445439E-2,9.919824501E0
2.674250683E0,1.675941199E-1,9.943418503E0,7.182604820E-2,9.945090160E0
2.676250716E0,5.746084079E-2,9.974543571E0,6.943184882E-2,9.974950726E0
2.678251616E0,-9.337386489E-2,9.969755173E0,2.394201607E-2,9.970221166E0
2.680252516E0,-2.466027737E-1,9.962572098E0,7.182605099E-3,9.965626288E0
2.682252549E0,-2.609679997E-1,9.945813179E0,7.182605099E-3,9.949238950E0
2.684252582E0,-3.495534360E-1,9.914688110E0,-2.154781483E-2,9.920871546E0
2.686252615E0,-5.003881454E-1,9.883563995E0,-5.506663769E-2,9.896375997E0
2.688252648E0,-6.009446383E-1,9.890746117E0,-4.788403213E-2,9.909101174E0
2.690252648E0,-7.469909191E-1,9.902717590E0,-3.830722719E-2,9.930925362E0
2.692252614E0,-8.092401624E-1,9.902717590E0,-7.182605099E-3,9.935730316E0
2.694252580E0,-8.523358107E-1,9.905111313E0,9.576806799E-3,9.941720081E0
2.696252913E0,-9.241618514E-1,9.838073730E0,4.788403213E-2,9.881501036E0
2.698252013E0,-9.241618514E-1,9.838073730E0,4.788403213E-2,9.881501036E0
2.700251113E0,-9.241618514E-1,9.838073730E0,4.788403213E-2,9.881501036E0
2.702251079E0,-9.217676520E-1,9.823708534E0,5.267243832E-2,9.866999511E0
2.704251045E0,-9.576807022E-1,9.790189743E0,4.788403213E-2,9.837035143E0
2.706251045E0,-9.552865028E-1,9.775824547E0,2.633621916E-2,9.822423910E0
2.708251078E0,-9.528923035E-1,9.754277229E0,2.633621916E-2,9.800745972E0
2.710251111E0,-9.576807022E-1,9.747094154E0,9.576806799E-3,9.794033311E0
2.712251144E0,-9.624691010E-1,9.744700432E0,1.197100803E-2,9.792123191E0
2.714251177E0,-9.528923035E-1,9.737517357E0,7.182605099E-3,9.784032891E0
2.716250843E0,-9.385270476E-1,9.737517357E0,2.394201607E-2,9.782670929E0
2.718251743E0,-9.241618514E-1,9.723152161E0,3.351882473E-2,9.767030592E0
2.720252643E0,-9.002198577E-1,9.706393242E0,4.309562966E-2,9.748144582E0
2.722252776E0,-8.116343617E-1,9.687239647E0,7.422025502E-2,9.721464445E0
2.724252776E0,-7.326257229E-1,9.648932457E0,7.900865376E-2,9.677028489E0
2.726252776E0,-6.895300746E-1,9.632172585E0,-4.788403399E-3,9.656822632E0
2.728252776E0,-5.219359994E-1,9.613018990E0,-1.388636976E-1,9.628179184E0
2.730252776E0,-3.160346150E-1,9.601048470E0,-1.484405100E-1,9.607395286E0
2.732252776E0,-2.466027737E-1,9.586683273E0,-1.173158810E-1,9.590572044E0
2.734252776E0,-1.412578970E-1,9.543587685E0,-2.394201607E-2,9.544663059E0
2.736252742E0,-5.267243832E-2,9.565135002E0,-1.819593310E-1,9.567010567E0
2.738251842E0,1.675941236E-2,9.565135002E0,-2.394201756E-1,9.568145615E0
2.740250908E0,1.675941236E-2,9.565135002E0,-2.394201756E-1,9.568145615E0
2.742250874E0,7.422025502E-2,9.567529678E0,-2.537853718E-1,9.571182780E0
2.744250840E0,1.340752989E-1,9.591471672E0,-2.394201756E-1,9.595396138E0
2.746250806E0,2.322375625E-1,9.644144058E0,-1.891419291E-1,9.648793892E0
2.748250772E0,3.160346150E-1,9.653720856E0,-1.268926859E-1,9.659725979E0
2.750250738E0,3.423708379E-1,9.670479774E0,-7.900865376E-2,9.676861021E0
2.752250738E0,3.734954596E-1,9.684844971E0,-4.309562966E-2,9.692140022E0
2.754250771E0,3.974374831E-1,9.708786964E0,2.394201607E-2,9.716947777E0
2.756250804E0,3.639186621E-1,9.708786964E0,8.619125932E-2,9.715987343E0
2.758251704E0,3.351882398E-1,9.708786964E0,9.097966552E-2,9.714997312E0
2.760252604E0,2.226607651E-1,9.725546837E0,8.140286058E-2,9.728435924E0
2.762252637E0,8.379705995E-2,9.742305756E0,1.029506698E-1,9.743210057E0
2.764252670E0,-7.182605099E-3,9.751882553E0,1.268926859E-1,9.752710735E0
2.766252703E0,-2.298433632E-1,9.792584419E0,1.484405100E-1,9.796406084E0
2.768252703E0,-4.692635238E-1,9.826103210E0,1.628057212E-1,9.838649209E0
2.770252669E0,-5.841852427E-1,9.840468407E0,1.723825186E-1,9.859300512E0
2.772252635E0,-7.852981687E-1,9.869198799E0,1.939303428E-1,9.902292014E0
2.774252601E0,-9.720458984E-1,9.881169319E0,2.202665508E-1,9.931308962E0
2.776252934E0,-1.362300754E0,9.845256805E0,2.346317619E-1,9.941830665E0
2.778252034E0,-1.362300754E0,9.845256805E0,2.346317619E-1,9.941830665E0
2.780251134E0,-1.362300754E0,9.845256805E0,2.346317619E-1,9.941830665E0
2.782251100E0,-1.424550056E0,9.845256805E0,2.274491638E-1,9.950384794E0
2.784251366E0,-1.570596337E0,9.847650528E0,2.202665508E-1,9.974543154E0
2.786251399E0,-1.853112102E0,9.866804123E0,1.747767180E-1,1.004083637E1
2.788251432E0,-1.922544003E0,9.972148895E0,1.197100878E-1,1.015648854E1
2.790251465E0,-1.850717902E0,9.998485565E0,8.858546615E-2,1.016871269E1
2.792251498E0,-1.640028119E0,1.007749462E1,9.576806799E-3,1.021007746E1
2.794251531E0,-1.352723956E0,9.938630104E0,-1.340752989E-1,1.003116178E1
2.796251564E0,-1.053448796E0,9.862015724E0,-1.604115069E-1,9.919417340E0
2.798252464E0,1.340752959E0,9.519645691E0,-5.410895944E-1,9.628813558E0
2.800253397E0,1.133923817E1,9.136572838E0,6.967126727E-1,1.457877546E1
2.802253397E0,1.161457157E1,9.239523888E0,9.816226959E-1,1.487382458E1
2.804253397E0,6.309020519E0,9.057564735E0,-9.840168953E-1,1.108203538E1
2.806253397E0,-1.956062794E0,9.624990463E0,-1.225831270E0,9.897943492E0
2.808253397E0,-4.996998310E0,1.003918743E1,-7.206547260E-1,1.123719803E1
2.810253397E0,-7.956231594E0,1.055394077E1,3.950432837E-1,1.322283427E1
2.812253397E0,-7.917924404E0,1.046774864E1,8.738836050E-1,1.315412335E1
2.814253363E0,-6.809409142E0,1.024748230E1,8.092401624E-1,1.233019935E1
2.816253329E0,-3.636792421E0,9.012074471E0,-6.224924326E-2,9.718416556E0
2.818252429E0,-3.636792421E0,9.012074471E0,-6.224924326E-2,9.718416556E0
2.820251495E0,-3.636792421E0,9.012074471E0,-6.224924326E-2,9.718416556E0
2.822251461E0,-3.184288263E0,8.830115318E0,-2.944868207E-1,9.391344460E0
2.824251427E0,-1.328781962E0,8.916306496E0,-3.998316824E-1,9.023638313E0
2.826251393E0,4.979939461E-1,9.045593262E0,-3.950432837E-1,9.067900232E0
2.828251359E0,1.000776291E0,9.170091629E0,-3.734954596E-1,9.232097948E0
2.830251359E0,1.632845521E0,9.502885818E0,-2.154781520E-1,9.644555677E0
2.832251359E0,1.766920805E0,9.787796021E0,-5.985504389E-2,9.946182318E0
2.834251392E0,1.798045516E0,9.933841705E0,-2.394201607E-2,1.009528365E1
2.836251425E0,1.783680320E0,1.031930828E1,-7.661445439E-2,1.047260754E1
2.838252325E0,1.723825216E0,1.038874054E1,-1.604115069E-1,1.053201003E1
2.840253225E0,1.613691926E0,1.042225933E1,-2.585737705E-1,1.054961381E1
2.842253258E0,1.386242747E0,1.040310574E1,-4.261679053E-1,1.050370873E1
2.844253024E0,1.223437071E0,1.030973148E1,-4.740519226E-1,1.039288635E1
2.846253024E0,1.165976286E0,1.014453220E1,-3.663128614E-1,1.021788723E1
2.848252990E0,1.132457376E0,1.004636955E1,-2.873041928E-1,1.011407656E1
2.850252956E0,1.041477680E0,9.883563995E0,-1.221042871E-1,9.939035288E0
2.852252922E0,1.046266198E0,9.725546837E0,-3.112462163E-2,9.781712681E0
2.854252888E0,1.048660398E0,9.639355659E0,7.182605099E-3,9.696232142E0
2.856252854E0,9.026140571E-1,9.529222488E0,-7.182605099E-3,9.571877818E0
2.858251954E0,9.026140571E-1,9.529222488E0,-7.182605099E-3,9.571877818E0
2.860251054E0,9.026140571E-1,9.529222488E0,-7.182605099E-3,9.571877818E0
2.862251054E0,8.379706144E-1,9.545981407E0,-2.154781483E-2,9.582714651E0
2.864251087E0,7.062895298E-1,9.624990463E0,-4.309562966E-2,9.650965939E0
2.866251120E0,6.416460276E-1,9.651326180E0,-4.309562966E-2,9.672727841E0
2.868251153E0,5.147533417E-1,9.699210167E0,9.576806799E-3,9.712864695E0
2.870251186E0,3.878606856E-1,9.761459351E0,7.422025502E-2,9.769443854E0
2.872251219E0,3.351882398E-1,9.775824547E0,1.268926859E-1,9.782392268E0
2.874251252E0,2.130839527E-1,9.821314812E0,1.747767180E-1,9.825180726E0
2.876251285E0,1.029506698E-1,9.840468407E0,1.699883193E-1,9.842474960E0
2.878252185E0,4.788403213E-2,9.847650528E0,1.556231081E-1,9.848996515E0
2.880253085E0,-3.591302410E-2,9.876380920E0,1.532289088E-1,9.877634784E0
2.882253085E0,-1.149216816E-1,9.866804123E0,1.388636976E-1,9.868450421E0
2.884253085E0,-1.915361285E-1,9.833285332E0,1.484405100E-1,9.836270690E0
2.886253085E0,-2.274491638E-1,9.828496933E0,1.580173075E-1,9.832398210E0
2.888253085E0,-2.873041928E-1,9.828496933E0,1.532289088E-1,9.833889096E0
2.890253085E0,-3.687070608E-1,9.821314812E0,1.532289088E-1,9.829427686E0
2.892253085E0,-3.950432837E-1,9.816526413E0,1.675941199E-1,9.825901373E0
2.894253051E0,-4.548983276E-1,9.816526413E0,1.987187415E-1,9.829069765E0
2.896253017E0,-6.009446383E-1,9.862015724E0,2.777273953E-1,9.884210697E0
2.898252117E0,-6.009446383E-1,9.862015724E0,2.777273953E-1,9.884210697E0
2.900251217E0,-6.009446383E-1,9.862015724E0,2.777273953E-1,9.884210697E0
2.902251183E0,-6.272808313E-1,9.859622002E0,2.657563984E-1,9.883129753E0
2.904251149E0,-6.392518282E-1,9.852438927E0,2.394201756E-1,9.876057803E0
2.906251115E0,-6.344634295E-1,9.842862129E0,2.035071403E-1,9.865388684E0
2.908251115E0,-6.177040339E-1,9.833285332E0,1.795651317E-1,9.854303746E0
2.910251115E0,-6.153098345E-1,9.830891609E0,1.604115069E-1,9.851434813E0
2.912251148E0,-5.770025849E-1,9.814131737E0,1.197100878E-1,9.831807781E0
2.914251181E0,-5.650315881E-1,9.780612946E0,8.140286058E-2,9.797258632E0
2.916251214E0,-5.434837937E-1,9.759065628E0,7.182604820E-2,9.774451164E0
2.918252114E0,-5.482721925E-1,9.744700432E0,6.703764945E-2,9.760342358E0
2.920253014E0,-6.224924326E-1,9.713575363E0,5.985504389E-2,9.733685108E0
2.922253047E0,-5.482721925E-1,9.696816444E0,8.619125932E-2,9.712686574E0
2.924253047E0,-4.979939461E-1,9.706393242E0,9.337386489E-2,9.719608347E0
2.926253013E0,-4.644751251E-1,9.684844971E0,6.464344263E-2,9.696191934E0
2.928252979E0,-4.788403511E-1,9.665691376E0,1.436521020E-2,9.677555694E0
2.930252945E0,-5.051765442E-1,9.680056572E0,-2.394201700E-3,9.693229818E0
2.932252911E0,-5.482721925E-1,9.742305756E0,0.000000000E0,9.757721242E0
2.934253077E0,-5.865794420E-1,9.699210167E0,-3.351882473E-2,9.716989082E0
2.936253043E0,-8.834604025E-1,9.730335236E0,-2.394201607E-2,9.770388902E0
2.938252143E0,-8.834604025E-1,9.730335236E0,-2.394201607E-2,9.770388902E0
2.940251276E0,-9.193734527E-1,9.756670952E0,-2.633621916E-2,9.799927000E0
2.942251309E0,-8.738836050E-1,9.756670952E0,-2.633621916E-2,9.795764095E0
2.944251342E0,-8.379706144E-1,9.737517357E0,-4.309562966E-2,9.773602010E0
2.946251375E0,-1.046266198E0,9.689633369E0,-1.005564705E-1,9.746475229E0
2.948251408E0,-1.022324085E0,9.682451248E0,-8.619125932E-2,9.736654335E0
2.950251441E0,-9.744400978E-1,9.739912033E0,-6.224924326E-2,9.788733058E0
2.952251474E0,-5.626373887E-1,9.768642426E0,2.154781483E-2,9.784855644E0
2.954251507E0,-1.675941199E-1,9.672874451E0,-4.788403399E-3,9.674327411E0
2.956251540E0,-1.604115069E-1,9.636960983E0,-4.548983276E-2,9.638403300E0
2.958252406E0,-1.915361285E-1,9.639355659E0,-4.548983276E-2,9.641365720E0
2.960253272E0,2.154781483E-2,9.593865395E0,1.436521020E-2,9.593900347E0
2.962253272E0,1.795651317E-1,9.550769806E0,3.112462163E-2,9.552508376E0
2.964253272E0,2.873041928E-1,9.493309021E0,2.633621916E-2,9.497692007E0
2.966253272E0,2.920926213E-1,9.483732224E0,7.422025502E-2,9.488519570E0
2.968253272E0,3.423708379E-1,9.483732224E0,1.029506698E-1,9.490468562E0
2.970253272E0,4.572925270E-1,9.500492096E0,9.816227108E-2,9.511997811E0
2.972253238E0,4.118026793E-1,9.548376083E0,1.125274822E-1,9.557914506E0
2.974253204E0,3.734954596E-1,9.589076996E0,1.221042871E-1,9.597124879E0
2.976253170E0,-1.221042871E-1,9.802161217E0,7.182604820E-2,9.803184837E0
2.978252270E0,-1.221042871E-1,9.802161217E0,7.182604820E-2,9.803184837E0
2.980251370E0,-1.221042871E-1,9.802161217E0,7.182604820E-2,9.803184837E0
2.982251336E0,-1.173158810E-1,9.842862129E0,7.661445439E-2,9.843859390E0
2.984251136E0,5.267243832E-2,9.888352394E0,1.197100878E-1,9.889217257E0
2.986251136E0,7.422025502E-2,9.924264908E0,1.316810995E-1,9.925415987E0
2.988251136E0,1.197100803E-2,9.950601578E0,1.149216816E-1,9.951272384E0
2.990251169E0,-1.628057212E-1,9.988908768E0,1.053448766E-1,9.990790840E0
2.992251202E0,-5.578489900E-1,9.761459351E0,1.292868853E-1,9.778241112E0
2.994251035E0,-9.720458984E-1,9.493309021E0,1.053448766E-1,9.543525918E0
2.996251068E0,-9.840168953E-1,9.725546837E0,-8.140286058E-2,9.775539727E0
2.998251968E0,-4.525041282E-1,1.026424217E1,-1.244984865E-1,1.027496605E1
3.000252868E0,-3.160346150E-1,1.043901825E1,-8.140286058E-2,1.044411826E1
3.002252868E0,-2.178723514E-1,1.063773727E1,-3.351882473E-2,1.064002097E1
3.004252834E0,1.699883193E-1,1.071435165E1,-7.900865376E-2,1.071599131E1
3.006252800E0,3.974374831E-1,1.051802731E1,-4.788403213E-2,1.052564240E1
3.008252766E0,4.477157295E-1,1.043901825E1,-6.464344263E-2,1.044881477E1
3.010252732E0,6.224924326E-1,1.028339577E1,-5.027823523E-2,1.030234212E1
3.012252698E0,5.770025849E-1,1.021875191E1,-5.746084079E-2,1.023519049E1
3.014252664E0,5.913678408E-1,1.012059021E1,-4.788403213E-2,1.013796602E1
3.016252630E0,9.121908545E-1,9.744700432E0,9.576806799E-3,9.787306595E0
3.018251763E0,9.121908545E-1,9.744700432E0,9.576806799E-3,9.787306595E0
3.020250929E0,9.121908545E-1,9.744700432E0,9.576806799E-3,9.787306595E0
3.022250962E0,9.648633003E-1,9.694421768E0,1.436521020E-2,9.742329340E0
3.024250995E0,7.565677166E-1,9.727940559E0,8.140286058E-2,9.757655900E0
3.026251028E0,5.051765442E-1,9.794978142E0,1.125274822E-1,9.808642239E0
3.028251061E0,2.920926213E-1,9.742305756E0,3.351882473E-2,9.746741150E0
3.030251094E0,1.508347094E-1,9.761459351E0,-7.182605099E-3,9.762627277E0
3.032251127E0,7.900865376E-2,9.797372818E0,-1.197100803E-2,9.797698700E0
3.034251160E0,5.506663769E-2,9.854833603E0,2.633621916E-2,9.855022642E0
3.036251160E0,3.591302410E-2,9.902717590E0,9.576806426E-2,9.903245778E0
3.038252026E0,-1.532289088E-1,9.938630104E0,1.125274822E-1,9.940448173E0
3.040252892E0,-6.129156351E-1,1.005834103E1,1.221042871E-1,1.007773780E1
3.042252892E0,-7.062895298E-1,1.002003384E1,1.268926859E-1,1.004569683E1
3.044253058E0,-8.283938169E-1,9.972148895E0,1.268926859E-1,1.000730192E1
3.046253058E0,-8.738836050E-1,9.818920135E0,1.125274822E-1,9.858373477E0
3.048253058E0,-8.236053586E-1,9.502885818E0,1.149216816E-1,9.539201836E0
3.050253024E0,-9.888052940E-1,9.081506729E0,9.576806799E-3,9.135184295E0
3.052252990E0,-9.313444495E-1,9.088688850E0,-7.182605099E-3,9.136285848E0
3.054252956E0,-5.889736414E-1,9.330503464E0,-1.197100803E-2,9.349081674E0
3.056252922E0,-4.812345505E-1,9.727940559E0,9.337386489E-2,9.740284026E0
3.058252022E0,-6.129156351E-1,9.756670952E0,4.788403213E-2,9.776020996E0
3.060251122E0,-6.129156351E-1,9.756670952E0,4.788403213E-2,9.776020996E0
3.062251088E0,-6.177040339E-1,9.763854027E0,2.873042040E-2,9.783416027E0
3.064251088E0,-4.668693244E-1,9.773430824E0,4.788403213E-2,9.784692633E0
3.066251088E0,-5.985504389E-2,9.787796021E0,9.816227108E-2,9.788471249E0
3.068251121E0,2.250549644E-1,9.646537781E0,1.340752989E-1,9.650094149E0
3.070251154E0,3.711012602E-1,9.584288597E0,1.532289088E-1,9.592694260E0
3.072251187E0,7.038952708E-1,9.514857292E0,1.747767180E-1,9.542459051E0
3.074251220E0,9.696516991E-1,9.440636635E0,1.915361285E-1,9.492235278E0
3.076251253E0,1.161187768E0,9.325715065E0,2.226607651E-1,9.400366819E0
3.078252153E0,1.151610970E0,9.289801598E0,2.011129409E-1,9.363069367E0
3.080253019E0,1.048660398E0,9.196428299E0,1.436520964E-1,9.257138759E0
3.082253019E0,1.048660398E0,9.143755913E0,1.364694983E-1,9.204704490E0
3.084252985E0,1.082179189E0,9.146149635E0,4.548983276E-2,9.210061578E0
3.086252951E0,1.115697980E0,9.220370293E0,-3.830722719E-2,9.287705732E0
3.088252917E0,1.154005170E0,9.380781174E0,-3.351882473E-2,9.451555791E0
3.090252883E0,1.125274777E0,9.426271439E0,-4.788403399E-3,9.493200698E0
3.092252849E0,9.792284966E-1,9.466972351E0,2.394201700E-3,9.517481793E0
3.094252815E0,9.265560508E-1,9.624990463E0,-2.633621916E-2,9.669521246E0
3.096252815E0,7.350199223E-1,9.759065628E0,-8.379705995E-2,9.787064839E0
3.098251981E0,7.350199223E-1,9.759065628E0,-8.379705995E-2,9.787064839E0
3.100251147E0,7.350199223E-1,9.759065628E0,-8.379705995E-2,9.787064839E0
3.102251180E0,7.398083210E-1,9.783007622E0,-9.576806426E-2,9.811407952E0
3.104251213E0,7.613561153E-1,9.775824547E0,-9.097966552E-2,9.805849581E0
3.106251246E0,7.493851185E-1,9.739912033E0,-6.943184882E-2,9.768944940E0
3.108251279E0,7.182605267E-1,9.699210167E0,-6.464344263E-2,9.725983489E0
3.110251312E0,5.865794420E-1,9.581894875E0,-4.548983276E-2,9.599940320E0
3.112251345E0,4.213795066E-1,9.450213432E0,-2.873042040E-2,9.459646930E0
3.114251345E0,3.256114423E-1,9.395146370E0,-7.182605099E-3,9.400789845E0
3.116251345E0,2.633621991E-1,9.359233856E0,1.915361360E-2,9.362958127E0
3.118252211E0,6.943184882E-2,9.265859604E0,7.182604820E-2,9.266398112E0
3.120253077E0,-1.963245422E-1,9.148544312E0,2.130839527E-1,9.153131219E0
3.122253077E0,-2.130839527E-1,9.158121109E0,2.633621991E-1,9.164384686E0
3.124253077E0,6.464344263E-2,9.395146370E0,2.825157940E-1,9.399615378E0
3.126253077E0,6.081272364E-1,9.747094154E0,1.939303428E-1,9.767971753E0
3.128253043E0,8.427590132E-1,9.936236382E0,1.963245422E-1,9.973844771E0
3.130253009E0,1.228225470E0,1.019720459E1,3.591302410E-2,1.027096923E1
3.132252975E0,1.400607944E0,1.025705910E1,-1.508347094E-1,1.035334318E1
3.134252941E0,1.472434044E0,1.028339577E1,-2.896983922E-1,1.039231522E1
3.136252907E0,1.798045516E0,1.037676907E1,1.651999205E-1,1.053269172E1
3.138252007E0,1.805228114E0,1.029776096E1,5.865794420E-1,1.047123703E1
3.140251107E0,1.805228114E0,1.029776096E1,5.865794420E-1,1.047123703E1
3.142251073E0,1.805228114E0,1.029776096E1,5.865794420E-1,1.047123703E1
3.144251073E0,1.704671621E0,1.011580181E1,6.153098345E-1,1.027686517E1
3.146251106E0,1.419761658E0,9.833285332E0,-6.703764945E-2,9.935477725E0
3.148251139E0,1.256955862E0,9.670479774E0,-3.040636182E-1,9.756565574E0
3.150251172E0,9.576807022E-1,9.378387451E0,-3.711012602E-1,9.434459161E0
3.152251205E0,7.254431248E-1,9.174880028E0,-9.097966552E-2,9.203964828E0
3.154251238E0,6.081272364E-1,9.093477249E0,1.197100803E-2,9.113796713E0
3.156251271E0,3.256114423E-1,9.036016464E0,9.576806426E-2,9.042388394E0
3.158252137E0,1.915361360E-2,9.069535255E0,1.316810995E-1,9.070511371E0
3.160253003E0,-1.412578970E-1,9.124602318E0,1.508347094E-1,9.126942114E0
3.162252969E0,-4.596867263E-1,9.282619476E0,1.651999205E-1,9.295462723E0
3.164252935E0,-7.422025204E-1,9.486125946E0,1.125274822E-1,9.515782284E0
3.166252901E0,-9.193734527E-1,9.591471672E0,1.173158810E-1,9.636147539E0
3.168252867E0,-9.792284966E-1,9.797372818E0,1.340752989E-1,9.847100018E0
3.170252833E0,-1.074996591E0,9.957783699E0,1.484405100E-1,1.001674141E1
3.172252799E0,-1.127668977E0,1.002721596E1,1.580173075E-1,1.009166323E1
3.174252799E0,-1.209071875E0,1.008707142E1,1.963245422E-1,1.016117158E1
3.176252832E0,-1.067813993E0,1.012298393E1,3.423708379E-1,1.018490296E1
3.178251998E0,-1.067813993E0,1.012298393E1,3.423708379E-1,1.018490296E1
3.180251164E0,-1.067813993E0,1.012298393E1,3.423708379E-1,1.018490296E1
3.182251197E0,-1.031900883E0,1.012059021E1,3.375824392E-1,1.017866040E1
3.184251230E0,-8.667010069E-1,1.009185982E1,3.088520169E-1,1.013371574E1
3.186251263E0,-7.589619160E-1,1.007509995E1,2.920926213E-1,1.010786724E1
3.188251296E0,-5.554547906E-1,1.002721596E1,2.849099934E-1,1.004662946E1
3.190251329E0,-4.165911078E-1,1.000566864E1,2.920926213E-1,1.001859627E1
3.192251329E0,-3.639186621E-1,9.976937294E0,2.801215947E-1,9.987501323E0
3.194251329E0,-2.513911724E-1,9.914688110E0,2.585737705E-1,9.921244793E0
3.196251329E0,-1.197100878E-1,9.900322914E0,2.154781520E-1,9.903391093E0
3.198252195E0,-4.548983276E-2,9.905111313E0,1.843535304E-1,9.906931193E0
3.200253061E0,9.576806799E-3,9.864410400E0,1.604115069E-1,9.865719240E0
3.202252627E0,2.394201607E-2,9.857227325E0,1.029506698E-1,9.857794003E0
3.204252627E0,2.873042040E-2,9.842862129E0,7.182604820E-2,9.843166122E0
3.206252593E0,-2.394201700E-3,9.826103210E0,7.661445439E-2,9.826402180E0
3.208252559E0,-6.224924326E-2,9.816526413E0,9.576806426E-2,9.817190907E0
3.210252525E0,-1.197100878E-1,9.811738014E0,9.816227108E-2,9.812959248E0
3.212252491E0,-1.460463107E-1,9.797372818E0,1.005564705E-1,9.798977256E0
3.214252057E0,-2.059013397E-1,9.775824547E0,5.985504389E-2,9.778175881E0
3.216252023E0,-2.705447972E-1,9.706393242E0,-1.436521020E-2,9.710173562E0
3.218251123E0,-2.394201756E-1,9.706393242E0,-2.633621916E-2,9.709381308E0
3.220250223E0,-2.394201756E-1,9.713575363E0,-2.633621916E-2,9.716561221E0
3.222250223E0,-2.059013397E-1,9.711181641E0,-3.351882473E-2,9.713422040E0
3.224250256E0,-1.795651317E-1,9.708786964E0,-3.591302410E-2,9.710513771E0
3.226250289E0,-1.388636976E-1,9.739912033E0,-1.197100803E-2,9.740909241E0
3.228250322E0,-1.125274822E-1,9.747094154E0,3.591302410E-2,9.747809838E0
3.230250355E0,-1.149216816E-1,9.751882553E0,5.267243832E-2,9.752701918E0
3.232250388E0,-8.619125932E-2,9.768642426E0,5.985504389E-2,9.769206027E0
3.234250421E0,-5.506663769E-2,9.783007622E0,5.985504389E-2,9.783345700E0
3.236250421E0,-2.873042040E-2,9.790189743E0,5.746084079E-2,9.790400522E0
3.238251287E0,-7.182605099E-3,9.780612946E0,4.788403213E-2,9.780732798E0
3.240252120E0,1.675941236E-2,9.794978142E0,5.267243832E-2,9.795134101E0
3.242252053E0,2.394201607E-2,9.814131737E0,6.224924326E-2,9.814358356E0
3.244252019E0,4.788403213E-2,9.816526413E0,6.703764945E-2,9.816872096E0
3.246251985E0,7.182604820E-2,9.768642426E0,4.548983276E-2,9.769012393E0
3.248251951E0,-1.077390760E-1,9.471760750E0,-2.394201607E-2,9.472403741E0
3.250251917E0,-1.412578970E-1,9.373599052E0,-2.873042040E-2,9.374707378E0
3.252251917E0,1.340752989E-1,9.490914345E0,5.267243832E-2,9.492007463E0
3.254251917E0,3.351882398E-1,9.603442192E0,1.197100878E-1,9.610035567E0
3.256251917E0,5.219359994E-1,9.873987198E0,7.661445439E-2,9.888069081E0
3.258251050E0,5.219359994E-1,9.873987198E0,7.661445439E-2,9.888069081E0
3.260250183E0,5.219359994E-1,9.873987198E0,7.661445439E-2,9.888069081E0
3.262250616E0,5.219359994E-1,9.873987198E0,7.661445439E-2,9.888069081E0
3.264250616E0,4.046200812E-1,9.905111313E0,3.830722719E-2,9.913446170E0
3.266250616E0,2.968810201E-1,9.921871185E0,3.112462163E-2,9.926360607E0
3.268250616E0,2.322375625E-1,9.905111313E0,2.633621916E-2,9.907868489E0
3.270250649E0,6.943184882E-2,9.850045204E0,1.197100803E-2,9.850297184E0
3.272250682E0,-5.985504389E-2,9.809343338E0,1.197100803E-2,9.809533254E0
3.274251115E0,-2.322375625E-1,9.804554939E0,0.000000000E0,9.807305024E0
3.276251148E0,-3.184288144E-1,9.761459351E0,-3.591302410E-2,9.766717735E0
3.278252048E0,-4.644751251E-1,9.730335236E0,-4.309562966E-2,9.741510056E0
3.280252948E0,-6.344634295E-1,9.711181641E0,-5.027823523E-2,9.732015238E0
3.282252981E0,-7.182605267E-1,9.696816444E0,-5.267243832E-2,9.723524141E0
3.284252981E0,-8.858546019E-1,9.665691376E0,-1.005564705E-1,9.706721370E0
3.286252947E0,-1.070208192E0,9.622595787E0,-1.675941199E-1,9.683376634E0
3.288252647E0,-1.142034173E0,9.581894875E0,-2.011129409E-1,9.651808010E0
3.290252613E0,-1.290474772E0,9.507674217E0,-2.250549644E-1,9.597491542E0
3.292252579E0,-1.391031146E0,9.469367027E0,-1.939303428E-1,9.572956102E0
3.294252545E0,-1.441309452E0,9.486125946E0,-1.532289088E-1,9.596219959E0
3.296252511E0,-1.482010841E0,9.651326180E0,-4.309562966E-2,9.764543532E0
3.298251611E0,-1.482010841E0,9.651326180E0,-4.309562966E-2,9.764543532E0
3.300250744E0,-1.482010841E0,9.651326180E0,-4.309562966E-2,9.764543532E0
3.302250810E0,-1.575384736E0,9.545981407E0,4.309562966E-2,9.675197948E0
3.304250843E0,-1.568202138E0,9.356839180E0,1.747767180E-1,9.488953804E0
3.306250876E0,-1.386242747E0,9.555558205E0,2.394201700E-3,9.655587361E0
3.308250909E0,-1.340752959E0,9.584288597E0,-4.070143029E-2,9.677699263E0
3.310250942E0,-1.240196466E0,9.672874451E0,-3.351882473E-2,9.752113152E0
3.312250975E0,-1.211466074E0,9.737517357E0,-1.436521020E-2,9.812599079E0
3.314251008E0,-1.197100878E0,9.787796021E0,-4.788403399E-3,9.860731432E0
3.316251041E0,-1.192312479E0,9.929053307E0,9.576806799E-3,1.000039001E1
3.318251907E0,-1.192312479E0,1.002482224E1,-1.197100803E-2,1.009548479E1
3.320252773E0,-1.201889277E0,1.006073475E1,-3.830722719E-2,1.013234371E1
3.322252773E0,-1.268926859E0,1.013016701E1,-1.364694983E-1,1.021024402E1
3.324252773E0,-1.304839969E0,1.018523312E1,-1.340752989E-1,1.026935038E1
3.326252773E0,-1.314416766E0,1.019959831E1,-1.221042871E-1,1.028466852E1
3.328252773E0,-1.328781962E0,1.017805099E1,-5.267243832E-2,1.026455834E1
3.330252739E0,-1.213860273E0,1.017326260E1,7.661445439E-2,1.024571122E1
3.332252705E0,-1.127668977E0,1.018044472E1,1.173158810E-1,1.024338103E1
3.334252671E0,-9.888052940E-1,1.017805099E1,8.619125932E-2,1.022633301E1
3.336252637E0,-7.015010715E-1,1.013256073E1,-1.556231081E-1,1.015800715E1
3.338251737E0,-7.015010715E-1,1.013734913E1,-1.556231081E-1,1.016278356E1
3.340250837E0,-7.015010715E-1,1.013734913E1,-1.556231081E-1,1.016278356E1
3.342250803E0,-6.991068721E-1,1.013734913E1,-1.604115069E-1,1.016269303E1
3.344250769E0,-6.512228847E-1,1.014213753E1,-1.221042871E-1,1.016375690E1
3.346250769E0,-6.464344859E-1,1.012777233E1,-1.412578970E-1,1.014936470E1
3.348251069E0,-7.015010715E-1,1.004876423E1,-9.337386489E-2,1.007365301E1
3.350251102E0,-7.374141216E-1,9.936236382E0,3.830722719E-2,9.963635906E0
3.352251135E0,-7.733271718E-1,9.912294388E0,8.619125932E-2,9.942788536E0
3.354251168E0,-8.212111592E-1,9.957783699E0,1.101332754E-1,9.992195620E0
3.356251201E0,-8.451532125E-1,9.974543571E0,1.292868853E-1,1.001111974E1
3.358252101E0,-8.499416113E-1,9.988908768E0,1.053448766E-1,1.002555717E1
3.360253001E0,-8.786720037E-1,1.002961063E1,5.506663769E-2,1.006817691E1
3.362253001E0,-9.169792533E-1,1.004397583E1,2.154781483E-2,1.008577046E1
3.364252967E0,-9.528923035E-1,1.004397583E1,2.154781483E-2,1.008909899E1
3.366252933E0,-1.027112484E0,9.979331970E0,1.005564705E-1,1.003255392E1
3.368252899E0,-1.051054597E0,9.893140793E0,2.130839527E-1,9.951098195E0
3.370252865E0,-1.091755986E0,9.850045204E0,2.250549644E-1,9.912919418E0
3.372252831E0,-1.127668977E0,9.773430824E0,1.939303428E-1,9.840182741E0
3.374252797E0,-1.161187768E0,9.715970039E0,1.556231081E-1,9.786350157E0
3.376252763E0,-1.221042871E0,9.572318077E0,5.267243832E-2,9.650025567E0
3.378251896E0,-1.221042871E0,9.572318077E0,5.267243832E-2,9.650025567E0
3.380251062E0,-1.221042871E0,9.572318077E0,5.267243832E-2,9.650025567E0
3.382250728E0,-1.206677675E0,9.555558205E0,3.591302410E-2,9.631513555E0
3.384250761E0,-1.187524080E0,9.545981407E0,2.873042040E-2,9.619604977E0
3.386250794E0,-1.261744261E0,9.419088364E0,1.197100878E-1,9.503975731E0
3.388250827E0,-1.106121182E0,9.443030357E0,2.011129409E-1,9.509719913E0
3.390250860E0,-9.289502501E-1,9.560346603E0,2.154781520E-1,9.607788850E0
3.392250893E0,-6.464344859E-1,9.715970039E0,1.963245422E-1,9.739429895E0
3.394250926E0,-5.315127969E-1,9.713575363E0,1.604115069E-1,9.729428762E0
3.396250926E0,-4.620809257E-1,9.711181641E0,1.388636976E-1,9.723160534E0
3.398251792E0,-4.405331016E-1,9.763854027E0,5.027823523E-2,9.773916450E0
3.400252658E0,-4.309563041E-1,9.739912033E0,4.788403213E-2,9.749559099E0
3.402252658E0,-4.309563041E-1,9.720758438E0,6.943184882E-2,9.730554390E0
3.404252658E0,-4.285621047E-1,9.675268173E0,8.619125932E-2,9.685138545E0
3.406252658E0,-4.884171486E-1,9.567529678E0,1.125274822E-1,9.580649137E0
3.408252458E0,-4.525041282E-1,9.447818756E0,1.580173075E-1,9.459968748E0
3.410252424E0,-3.639186621E-1,9.098265648E0,2.082955539E-1,9.107923014E0
3.412252390E0,-1.939303428E-1,8.873210907E0,1.771709323E-1,8.877098080E0
3.414252356E0,1.173158810E-1,8.765471458E0,2.873042040E-2,8.766303573E0
3.416252322E0,2.439691544E0,9.162909508E0,4.333505034E-1,9.492038671E0
3.418251422E0,2.439691544E0,9.162909508E0,4.333505034E-1,9.492038671E0
3.420250488E0,2.439691544E0,9.162909508E0,4.333505034E-1,9.492038671E0
3.422250288E0,1.254561663E0,8.420706749E0,5.746083856E-1,8.533018336E0
3.424250288E0,1.039083481E0,9.110237122E0,1.484405100E-1,9.170504320E0
3.426250321E0,1.144428372E0,9.778219223E0,-5.291185975E-1,9.859171059E0
3.428250354E0,1.331176162E0,1.004636955E1,-7.422025204E-1,1.016132057E1
3.430250387E0,1.173158884E0,1.038155746E1,-7.709329724E-1,1.047603813E1
3.432250420E0,5.386953950E-1,1.045338345E1,-6.033388376E-1,1.048462856E1
3.434250453E0,1.316810995E-1,1.043422985E1,-3.758896589E-1,1.044182865E1
3.436250486E0,-1.118092179E0,1.025466537E1,1.723825186E-1,1.031687975E1
3.438251386E0,-1.460463047E0,1.020438671E1,2.992752194E-1,1.031271187E1
3.440252252E0,-1.934514999E0,1.009904194E1,4.022258818E-1,1.029051904E1
3.442252585E0,-2.037465572E0,9.991303444E0,5.075707436E-1,1.020955624E1
3.444252551E0,-2.154781580E0,9.981725693E0,4.932055473E-1,1.022356020E1
3.446252517E0,-2.159569979E0,9.725546837E0,3.639186621E-1,9.969074208E0
3.448252483E0,-2.085349798E0,9.634567261E0,3.016694188E-1,9.862280392E0
3.450252449E0,-1.798045516E0,9.577106476E0,1.364694983E-1,9.745386603E0
3.452252415E0,-1.467645645E0,9.555558205E0,-4.070143029E-2,9.667695328E0
3.454252381E0,-1.386242747E0,9.514857292E0,-3.830722719E-2,9.615385883E0
3.456252381E0,-4.213795066E-1,9.754277229E0,-4.788403399E-3,9.763375845E0
3.458251547E0,-4.213795066E-1,9.754277229E0,-4.788403399E-3,9.763375845E0
3.460250680E0,-4.213795066E-1,9.754277229E0,-4.788403399E-3,9.763375845E0
3.462250713E0,-2.322375625E-1,9.890746117E0,-3.830722719E-2,9.893546405E0
3.464250746E0,-5.506663769E-2,1.003679276E1,6.703764945E-2,1.003716769E1
3.466250779E0,1.316810995E-1,1.029776096E1,1.651999205E-1,1.029992776E1
3.468250979E0,8.140286058E-2,1.039352894E1,2.322375625E-1,1.039644192E1
3.470251012E0,-2.394201607E-2,1.040071106E1,2.609679997E-1,1.040401211E1
3.472251045E0,-1.532289088E-1,1.038395214E1,2.657563984E-1,1.038848245E1
3.474251045E0,-3.232172430E-1,1.024987698E1,1.987187415E-1,1.025689702E1
3.476251045E0,-4.644751251E-1,1.014453220E1,1.316810995E-1,1.015601352E1
3.478251911E0,-6.272808313E-1,9.931447983E0,1.675941236E-2,9.951252241E0
3.480252811E0,-6.871358752E-1,9.838073730E0,2.394201700E-3,9.862041177E0
3.482252977E0,-7.996633649E-1,9.706393242E0,7.661445439E-2,9.739579100E0
3.484252977E0,-7.948749661E-1,9.622595787E0,1.628057212E-1,9.656742805E0
3.486252943E0,-7.493851185E-1,9.560346603E0,1.532289088E-1,9.590895909E0
3.488252909E0,-8.307880163E-1,9.308955193E0,1.819593310E-1,9.347725108E0
3.490252875E0,-6.655880809E-1,9.332897186E0,1.628057212E-1,9.358017049E0
3.492252841E0,-5.506663918E-1,9.395146370E0,1.532289088E-1,9.412517617E0
3.494252807E0,-3.734954596E-1,9.486125946E0,1.388636976E-1,9.494491427E0
3.496252773E0,-4.118026793E-1,9.677662849E0,-5.027823523E-2,9.686550861E0
3.498251873E0,-4.118026793E-1,9.677662849E0,-5.027823523E-2,9.686550861E0
3.500250973E0,-4.118026793E-1,9.677662849E0,-5.027823523E-2,9.686550861E0
3.502250973E0,-4.860229492E-1,9.701604843E0,-4.788403213E-2,9.713889423E0
3.504251006E0,-5.626373887E-1,9.723152161E0,-5.027823523E-2,9.739547047E0
3.506251039E0,-6.919242740E-1,9.785401344E0,0.000000000E0,9.809833774E0
3.508251072E0,-7.350199223E-1,9.838073730E0,6.703764945E-2,9.865720605E0
3.510251105E0,-7.110779285E-1,9.936236382E0,1.221042871E-1,9.962396032E0
3.512251138E0,-6.871358752E-1,9.984120369E0,1.340752989E-1,1.000863584E1
3.514251171E0,-6.320692301E-1,1.003918743E1,1.149216816E-1,1.005972180E1
3.516251204E0,-6.272808313E-1,1.003679276E1,6.943184882E-2,1.005661528E1
3.518252070E0,-6.344634295E-1,1.002482224E1,5.027823523E-2,1.004500536E1
3.520252936E0,-6.703764796E-1,1.001524544E1,4.548983276E-2,1.003775947E1
3.522252902E0,-7.278373241E-1,9.988908768E0,5.506663769E-2,1.001554182E1
3.524252868E0,-7.613561153E-1,9.967360497E0,5.506663769E-2,9.996547941E0
3.526252834E0,-7.924807668E-1,9.943418503E0,8.858546615E-2,9.975341832E0
3.528252800E0,-7.876923680E-1,9.993697166E0,1.460463107E-1,1.002575543E1
3.530252766E0,-8.140285611E-1,9.981725693E0,1.604115069E-1,1.001614807E1
3.532252732E0,-9.528923035E-1,9.864410400E0,1.580173075E-1,9.911587449E0
3.534252732E0,-1.393425345E0,9.543587685E0,2.298433632E-1,9.647514087E0
3.536252765E0,-1.702277422E0,8.605060577E0,2.035071403E-1,8.774179797E0
3.538251931E0,-1.702277422E0,8.605060577E0,2.035071403E-1,8.774179797E0
3.540251097E0,-1.240196466E0,8.880393028E0,1.915361285E-1,8.968620502E0
3.542251130E0,-8.427590132E-1,9.301773071E0,2.011129409E-1,9.342037863E0
3.544252030E0,-3.471592367E-1,9.646537781E0,-3.112462163E-2,9.652832715E0
3.546252063E0,-9.026140571E-1,9.268254280E0,-6.943184882E-2,9.312361157E0
3.548252096E0,-6.823474765E-1,9.191639900E0,-1.197100803E-2,9.216940134E0
3.550252129E0,-3.280056417E-1,9.883563995E0,-2.801215947E-1,9.892971902E0
3.552252129E0,-3.136404157E-1,1.012777233E1,-1.340752989E-1,1.013351464E1
3.554252129E0,-7.685387731E-1,1.014692593E1,1.101332754E-1,1.017658523E1
